subject,acc,RT,Code,seq,actionseq,timeseq,trial
7500,0,0.350758900000073,3,1,1,1,39
7500,-1,-1,-1,2,2,2,39
7500,0,1.00894040000003,3,3,2,3,39
7500,0,0.463357500000711,3,3,2,4,39
7500,-1,-1,-1,1,1,5,39
7500,-1,-1,-1,3,2,6,39
7500,0,0.671283900000162,1,2,2,7,39
7500,1,0.642365699999573,1,1,1,8,39
7500,1,0.783287100000052,2,2,2,9,39
7500,0,0.621989299999768,3,1,1,10,39
7500,1,0.64296479999939,2,2,2,11,39
7500,0,0.503965400000197,1,3,2,12,39
7500,0,0.457668900000499,1,3,2,13,39
7500,0,0.39768660000027,3,2,2,14,39
7500,0,0.531641599999602,3,1,1,15,39
7500,-1,-1,-1,2,2,16,39
7500,-1,-1,-1,3,2,17,39
7500,0,1.00829560000057,3,1,1,18,39
7500,0,0.798682200000258,1,3,2,19,39
7500,1,0.460622499999772,2,2,2,20,39
7500,0,0.336290400000507,2,1,1,21,39
7500,0,0.40920559999995,2,1,1,22,39
7500,0,0.534991300000002,3,3,2,23,39
7500,0,0.471656999999141,3,1,1,24,39
7500,1,0.354997100000219,2,2,2,25,39
7500,1,0.755375199999435,2,2,2,26,39
7500,-1,-1,-1,3,2,27,39
7500,1,0.70134120000057,2,2,2,28,39
7500,-1,-1,-1,1,1,29,39
7500,0,0.865433099999791,1,3,2,30,39
7500,0,0.508743899999899,1,3,2,31,39
7500,1,0.494635600000038,2,2,2,32,39
7500,0,0.697361700000329,1,3,2,33,39
7500,-1,-1,-1,1,1,34,39
7500,1,0.405942800000048,2,2,2,35,39
7500,-1,-1,-1,1,1,36,39
7500,-1,-1,-1,1,1,37,39
7500,-1,-1,-1,3,2,38,39
7500,-1,-1,-1,2,2,39,39
7500,0,0.373299300000326,3,1,1,40,78
7500,0,0.645276600000216,3,2,1,41,78
7500,0,0.369669599999725,3,3,2,42,78
7500,0,0.377258399999846,3,4,2,43,78
7500,1,0.376636100000724,3,5,3,44,78
7500,1,0.671631500000331,3,6,3,45,78
7500,1,0.826964999999291,1,1,1,46,78
7500,1,0.624624700000822,3,5,3,47,78
7500,1,0.902102200000627,2,4,2,48,78
7500,0,0.968048499999895,1,3,2,49,78
7500,0,0.719042300000183,2,2,1,50,78
7500,0,0.944753400000081,1,3,2,51,78
7500,1,0.841467000000193,2,4,2,52,78
7500,1,0.821977499999775,3,6,3,53,78
7500,1,0.635389000000032,3,6,3,54,78
7500,1,0.815687299999809,1,2,1,55,78
7500,1,0.781196099999761,1,1,1,56,78
7500,1,0.69960810000066,3,5,3,57,78
7500,1,0.965957800000069,1,1,1,58,78
7500,1,1.00528060000033,1,2,1,59,78
7500,1,0.883222499999647,2,3,2,60,78
7500,1,0.477695399999902,2,4,2,61,78
7500,0,0.881370799999786,2,5,3,62,78
7500,0,0.460010099999636,2,6,3,63,78
7500,1,0.59998700000051,1,2,1,64,78
7500,1,0.397711000000527,3,5,3,65,78
7500,1,0.579997400000138,2,3,2,66,78
7500,1,0.627266899999995,3,6,3,67,78
7500,1,0.872744500000408,2,4,2,68,78
7500,1,0.995992299999671,1,1,1,69,78
7500,1,0.626703599999928,2,4,2,70,78
7500,1,0.472021499999755,2,4,2,71,78
7500,1,0.603270900000098,1,2,1,72,78
7500,1,0.601049599999897,3,6,3,73,78
7500,1,1.1593012000003,3,5,3,74,78
7500,1,0.574990400000388,2,3,2,75,78
7500,1,0.654641600000105,1,1,1,76,78
7500,1,1.45074719999957,3,6,3,77,78
7500,1,0.670667899999899,2,3,2,78,78
7500,1,1.44170169999961,3,5,3,79,78
7500,1,0.526622300000781,1,2,1,80,78
7500,1,0.55197599999974,2,4,2,81,78
7500,1,0.823687299999619,1,2,1,82,78
7500,1,0.580989099999897,1,1,1,83,78
7500,1,0.467898199999581,1,1,1,84,78
7500,0,1.04729320000024,2,5,3,85,78
7500,1,0.546956099999989,2,3,2,86,78
7500,0,0.675278799999433,1,6,3,87,78
7500,1,0.606275899999673,3,6,3,88,78
7500,1,0.604640599999584,3,5,3,89,78
7500,1,0.594672299999729,2,4,2,90,78
7500,1,1.2332937000001,2,3,2,91,78
7500,1,0.533904100000655,1,2,1,92,78
7500,1,0.566562999999405,2,3,2,93,78
7500,1,0.581885599999623,1,1,1,94,78
7500,1,0.596645300000091,1,2,1,95,78
7500,1,0.538999499999591,3,5,3,96,78
7500,0,0.516043100000388,2,1,1,97,78
7500,1,0.581258200000775,2,4,2,98,78
7500,1,0.835696600000119,3,6,3,99,78
7500,1,0.65661369999998,2,4,2,100,78
7500,1,0.676617999999507,3,5,3,101,78
7500,1,1.39189259999966,2,3,2,102,78
7500,1,0.9666014000004,1,1,1,103,78
7500,-1,-1,-1,1,1,104,78
7500,1,0.527994600000056,3,6,3,105,78
7500,1,0.657312999999704,1,2,1,106,78
7500,1,0.637352100000498,2,3,2,107,78
7500,1,0.858087200000227,3,6,3,108,78
7500,1,1.39801729999999,3,5,3,109,78
7500,1,0.667636499999389,1,2,1,110,78
7500,1,0.479258500000469,2,4,2,111,78
7500,1,0.586659400000826,2,4,2,112,78
7500,1,0.601366599999892,1,1,1,113,78
7500,1,0.735275300000467,1,2,1,114,78
7500,1,0.423899999999776,3,6,3,115,78
7500,1,0.613289899999472,1,2,1,116,78
7500,1,1.23539869999968,2,3,2,117,78
7500,0,1.08333699999912,2,1,1,118,39
7500,0,0.918635999999424,2,2,3,119,39
7500,0,0.591944199999489,2,3,3,120,39
7500,1,0.830306300000302,3,3,3,121,39
7500,0,0.779365299999881,3,1,1,122,39
7500,1,0.690491100000145,3,3,3,123,39
7500,1,0.7329222999997,3,2,3,124,39
7500,1,0.494028299999627,1,1,1,125,39
7500,1,0.664302500000304,3,2,3,126,39
7500,1,0.731900799999494,1,1,1,127,39
7500,1,0.580267399999684,3,2,3,128,39
7500,1,0.459582299999965,3,3,3,129,39
7500,1,0.568057700000281,3,3,3,130,39
7500,1,0.519313499999953,3,2,3,131,39
7500,1,0.488629199999195,1,1,1,132,39
7500,1,0.746960200000103,3,2,3,133,39
7500,1,0.723987999999736,3,3,3,134,39
7500,1,0.701386800000364,1,1,1,135,39
7500,1,0.447216200000184,3,3,3,136,39
7500,1,0.347680100000616,3,2,3,137,39
7500,1,0.388023800000155,1,1,1,138,39
7500,1,0.54653479999979,1,1,1,139,39
7500,1,0.579342899999574,3,3,3,140,39
7500,1,0.466637800000171,1,1,1,141,39
7500,1,0.613967700000103,3,2,3,142,39
7500,1,0.524013000000195,3,2,3,143,39
7500,1,0.597245399999338,3,3,3,144,39
7500,1,0.524022100000366,3,2,3,145,39
7500,1,0.685000399999808,1,1,1,146,39
7500,1,0.551650099999279,3,3,3,147,39
7500,1,0.583885300000475,3,3,3,148,39
7500,1,0.438667299999906,3,2,3,149,39
7500,1,0.41140870000072,3,3,3,150,39
7500,1,0.496986600000128,1,1,1,151,39
7500,1,0.596025799999552,3,2,3,152,39
7500,1,0.666711500000019,1,1,1,153,39
7500,1,0.741665900000044,1,1,1,154,39
7500,1,0.622663099999954,3,3,3,155,39
7500,1,0.628019699999641,3,2,3,156,39
7500,1,0.408044199999495,2,1,2,157,39
7500,0,0.42261039999994,3,2,2,158,39
7500,0,0.755702299999939,3,3,1,159,39
7500,0,0.500030299999707,2,3,1,160,39
7500,1,1.48569420000058,2,1,2,161,39
7500,1,0.576330300000336,1,3,1,162,39
7500,0,0.431925200000478,3,2,2,163,39
7500,1,0.65266419999989,2,1,2,164,39
7500,0,0.736339799999769,1,2,2,165,39
7500,1,0.800926199999594,2,1,2,166,39
7500,1,0.703365800000029,2,2,2,167,39
7500,1,0.86529900000005,1,3,1,168,39
7500,1,0.596348900000521,1,3,1,169,39
7500,1,0.70735169999989,2,2,2,170,39
7500,1,0.365282300000217,2,1,2,171,39
7500,0,0.372621100000288,1,2,2,172,39
7500,1,0.604116300000896,1,3,1,173,39
7500,1,0.386046800000258,2,1,2,174,39
7500,1,0.744359000000259,1,3,1,175,39
7500,1,0.361404100000073,2,2,2,176,39
7500,1,0.505019499999435,2,1,2,177,39
7500,1,0.491216999999779,2,1,2,178,39
7500,1,0.493930300000102,1,3,1,179,39
7500,1,0.472219799999948,2,1,2,180,39
7500,1,0.468047100000149,2,2,2,181,39
7500,1,0.686973500000022,2,2,2,182,39
7500,1,0.46610900000087,1,3,1,183,39
7500,1,0.645301999999901,2,2,2,184,39
7500,1,0.610025599999972,2,1,2,185,39
7500,1,0.511663899999803,1,3,1,186,39
7500,1,0.553863600000113,1,3,1,187,39
7500,1,0.753988299999946,2,2,2,188,39
7500,1,0.825684700000238,1,3,1,189,39
7500,1,0.735228700000334,2,1,2,190,39
7500,1,0.495692500000587,2,2,2,191,39
7500,1,0.602311999999984,2,1,2,192,39
7500,1,0.504687999999987,2,1,2,193,39
7500,1,0.618328800000199,1,3,1,194,39
7500,1,0.615993899999921,2,2,2,195,39
7500,1,0.711844200000087,2,1,2,196,78
7500,1,0.681998700000804,2,2,2,197,78
7500,0,1.1242930999997,2,3,3,198,78
7500,0,0.87800740000057,2,4,3,199,78
7500,0,0.472984300000462,2,5,1,200,78
7500,0,0.420567399999527,2,6,1,201,78
7500,1,0.633965099999841,2,1,2,202,78
7500,0,0.374701400000049,2,5,1,203,78
7500,1,0.685900399999809,3,4,3,204,78
7500,1,0.848433000000114,3,3,3,205,78
7500,0,0.700328599999921,1,2,2,206,78
7500,1,1.03856720000022,3,3,3,207,78
7500,1,0.466998800000511,3,4,3,208,78
7500,1,0.73463620000075,1,6,1,209,78
7500,1,0.751311500000156,1,6,1,210,78
7500,1,0.511240200000429,2,2,2,211,78
7500,1,0.465317000000141,2,1,2,212,78
7500,1,0.48458330000085,1,5,1,213,78
7500,1,0.727272600000106,2,1,2,214,78
7500,1,0.536662299999989,2,2,2,215,78
7500,1,0.545344899999691,3,3,3,216,78
7500,1,0.722012399999585,3,4,3,217,78
7500,1,0.411345900000015,1,5,1,218,78
7500,1,0.464998800000103,1,6,1,219,78
7500,1,0.668292500000462,2,2,2,220,78
7500,1,0.599632100000235,1,5,1,221,78
7500,1,0.597988700000315,3,3,3,222,78
7500,1,0.787949800000206,1,6,1,223,78
7500,1,0.658687599999212,3,4,3,224,78
7500,1,0.502647899999829,2,1,2,225,78
7500,1,0.600622299999486,3,4,3,226,78
7500,1,0.718313499999567,3,4,3,227,78
7500,1,0.743942000000061,2,2,2,228,78
7500,1,0.704695700000229,1,6,1,229,78
7500,1,0.410308900000018,1,5,1,230,78
7500,1,1.04057589999957,3,3,3,231,78
7500,1,1.19699039999978,2,1,2,232,78
7500,1,0.715684499999952,1,6,1,233,78
7500,1,0.636947500000133,3,3,3,234,78
7500,1,0.458003699999608,1,5,1,235,78
7500,1,0.614033700000618,2,2,2,236,78
7500,1,0.65190579999944,3,4,3,237,78
7500,1,0.647653699999864,2,2,2,238,78
7500,1,0.667710900000202,2,1,2,239,78
7500,1,0.655374899999515,2,1,2,240,78
7500,1,0.499252399999932,1,5,1,241,78
7500,1,0.581236199999694,3,3,3,242,78
7500,1,0.972032100000433,1,6,1,243,78
7500,1,0.499269300000378,1,6,1,244,78
7500,1,0.989415600000029,1,5,1,245,78
7500,1,0.579909199999747,3,4,3,246,78
7500,1,0.379357800000435,3,3,3,247,78
7500,1,0.514574099999663,2,2,2,248,78
7500,0,0.51598820000072,2,3,3,249,78
7500,1,0.516988600000332,2,1,2,250,78
7500,1,0.622570399999859,2,2,2,251,78
7500,1,0.356185100000403,1,5,1,252,78
7500,1,0.84391880000021,2,1,2,253,78
7500,1,0.592690499999662,3,4,3,254,78
7500,1,0.53533249999964,1,6,1,255,78
7500,1,0.647973099999945,3,4,3,256,78
7500,1,0.595914800000173,1,5,1,257,78
7500,1,0.602581099999952,3,3,3,258,78
7500,1,0.512553399999888,2,1,2,259,78
7500,1,0.57064900000023,2,1,2,260,78
7500,1,0.929607299999589,1,6,1,261,78
7500,1,0.683218899999702,2,2,2,262,78
7500,1,0.790022000000135,3,3,3,263,78
7500,1,1.06058470000062,1,6,1,264,78
7500,1,0.696565199999895,1,5,1,265,78
7500,1,0.539388899999722,2,2,2,266,78
7500,1,0.851926600000297,3,4,3,267,78
7500,1,0.471906700000545,3,4,3,268,78
7500,1,0.499000399999204,2,1,2,269,78
7500,1,1.00527249999959,2,2,2,270,78
7500,1,0.427250100000492,1,6,1,271,78
7500,1,0.640637000000424,2,2,2,272,78
7500,1,0.701198500000828,3,3,3,273,78
7500,0,0.370098800000051,2,1,3,274,39
7500,1,0.401918000000478,2,2,2,275,39
7500,0,0.655969299999924,2,3,3,276,39
7500,1,0.715596000000005,3,3,3,277,39
7500,0,0.581222999999227,1,1,3,278,39
7500,1,0.844024099999842,3,3,3,279,39
7500,1,0.472636799999236,2,2,2,280,39
7500,0,1.23605390000012,2,1,3,281,39
7500,1,0.78435619999982,2,2,2,282,39
7500,1,0.871257300000252,3,1,3,283,39
7500,1,0.650728300000083,2,2,2,284,39
7500,1,0.430766499999663,3,3,3,285,39
7500,1,0.715617700000621,3,3,3,286,39
7500,1,0.389405500000066,2,2,2,287,39
7500,1,0.508025799999814,3,1,3,288,39
7500,1,0.589659300000676,2,2,2,289,39
7500,1,0.708292300000721,3,3,3,290,39
7500,0,0.45456970000032,2,1,3,291,39
7500,1,1.19430050000028,3,3,3,292,39
7500,1,0.561039500000334,2,2,2,293,39
7500,1,0.433295300000282,3,1,3,294,39
7500,1,0.413558100000046,3,1,3,295,39
7500,1,0.668014900000344,3,3,3,296,39
7500,1,0.430975100000069,3,1,3,297,39
7500,1,0.427892200001224,2,2,2,298,39
7500,1,0.649366499999815,2,2,2,299,39
7500,1,0.445291900001394,3,3,3,300,39
7500,1,0.538096000000223,2,2,2,301,39
7500,1,0.354574199998751,3,1,3,302,39
7500,1,0.466586299999108,3,3,3,303,39
7500,1,0.765627599999789,3,3,3,304,39
7500,1,0.493255100000169,2,2,2,305,39
7500,1,0.41591729999891,3,3,3,306,39
7500,1,0.589044099999228,3,1,3,307,39
7500,1,0.451642799998808,2,2,2,308,39
7500,1,0.447569399999338,3,1,3,309,39
7500,1,0.427689899999677,3,1,3,310,39
7500,0,0.569329300000391,2,3,3,311,39
7500,1,0.440585500000452,2,2,2,312,39
7500,0,0.454556000000593,2,1,3,313,78
7500,1,0.579235499999413,3,2,3,314,78
7500,0,0.682290799999464,3,3,1,315,78
7500,0,1.03698570000051,2,4,1,316,78
7500,0,0.441955899999812,3,5,2,317,78
7500,0,0.414324800000031,1,6,2,318,78
7500,1,0.564000399999713,3,1,3,319,78
7500,0,0.970984900000985,3,5,2,320,78
7500,0,0.666270300000178,2,4,1,321,78
7500,0,0.878064700000323,2,3,1,322,78
7500,1,0.969323900000745,3,2,3,323,78
7500,1,0.888584100001026,1,3,1,324,78
7500,1,0.579401700000744,1,4,1,325,78
7500,1,0.834776499999862,2,6,2,326,78
7500,1,0.61527550000028,2,6,2,327,78
7500,1,0.692366799999945,3,2,3,328,78
7500,0,0.927313700000013,2,1,3,329,78
7500,0,0.960541099999318,3,5,2,330,78
7500,0,1.03261580000071,1,1,3,331,78
7500,1,0.909333699999479,3,2,3,332,78
7500,0,0.711238899999444,3,3,1,333,78
7500,1,0.425261799999134,1,4,1,334,78
7500,1,1.09461639999972,2,5,2,335,78
7500,0,0.86533640000016,1,6,2,336,78
7500,1,0.916608800000176,3,2,3,337,78
7500,1,0.701627399999779,2,5,2,338,78
7500,1,0.78369869999915,1,3,1,339,78
7500,1,0.766344300000128,2,6,2,340,78
7500,1,0.86196259999997,1,4,1,341,78
7500,1,0.505659899999955,3,1,3,342,78
7500,1,0.732068600000275,1,4,1,343,78
7500,1,0.500663799999529,1,4,1,344,78
7500,1,0.65460770000027,3,2,3,345,78
7500,1,0.786697700001241,2,6,2,346,78
7500,1,0.561030200000459,2,5,2,347,78
7500,1,0.697321499999816,1,3,1,348,78
7500,1,0.691933599999174,3,1,3,349,78
7500,1,0.894323000000441,2,6,2,350,78
7500,1,0.713298299999224,1,3,1,351,78
7500,1,1.15528489999997,2,5,2,352,78
7500,1,0.579402299999856,3,2,3,353,78
7500,1,0.594548999999461,1,4,1,354,78
7500,1,0.857351700000436,3,2,3,355,78
7500,1,1.06935020000128,3,1,3,356,78
7500,1,0.560680900000079,3,1,3,357,78
7500,1,0.608718299999964,2,5,2,358,78
7500,1,0.494665800000803,1,3,1,359,78
7500,1,0.489336099999491,2,6,2,360,78
7500,1,0.571699699999954,2,6,2,361,78
7500,1,0.755373900001359,2,5,2,362,78
7500,1,0.619320200001312,1,4,1,363,78
7500,1,0.680280200000198,1,3,1,364,78
7500,1,0.82001499999933,3,2,3,365,78
7500,1,0.728973999999653,1,3,1,366,78
7500,1,0.866565599999376,3,1,3,367,78
7500,1,0.725686499999938,3,2,3,368,78
7500,1,0.663346999999703,2,5,2,369,78
7500,1,0.754961000000549,3,1,3,370,78
7500,1,0.61930509999911,1,4,1,371,78
7500,1,0.592669400000887,2,6,2,372,78
7500,1,0.679221500000494,1,4,1,373,78
7500,1,0.666558599999917,2,5,2,374,78
7500,1,0.597692100000131,1,3,1,375,78
7500,1,1.10802489999878,3,1,3,376,78
7500,1,0.469645600000149,3,1,3,377,78
7500,1,0.593073699999877,2,6,2,378,78
7500,1,0.671670899999299,3,2,3,379,78
7500,1,0.499300299999959,1,3,1,380,78
7500,1,0.565253400000074,2,6,2,381,78
7500,1,0.860349100001258,2,5,2,382,78
7500,1,0.632614000000103,3,2,3,383,78
7500,1,0.573017000000618,1,4,1,384,78
7500,1,0.500606999999945,1,4,1,385,78
7500,1,0.990704000001642,3,1,3,386,78
7500,1,0.652950800000326,3,2,3,387,78
7500,1,0.609016900001734,2,6,2,388,78
7500,1,0.503293200001281,3,2,3,389,78
7500,1,0.609331800000291,1,3,1,390,78
7500,0,0.535964799999419,2,1,1,391,78
7500,0,0.369006200000513,2,2,1,392,78
7500,1,0.312644900001033,2,3,2,393,78
7500,1,0.394609999999375,2,4,2,394,78
7500,1,0.60128160000022,3,5,3,395,78
7500,1,0.430891399999382,3,6,3,396,78
7500,1,0.436038899999403,1,1,1,397,78
7500,1,0.728321399999913,3,5,3,398,78
7500,1,1.19400280000082,2,4,2,399,78
7500,1,0.544644899999184,2,3,2,400,78
7500,1,0.881396500000847,1,2,1,401,78
7500,0,0.75600040000063,3,3,2,402,78
7500,1,0.931988899999851,2,4,2,403,78
7500,1,0.7243011999999,3,6,3,404,78
7500,1,0.597951800000374,3,6,3,405,78
7500,0,0.556028499999229,3,2,1,406,78
7500,1,1.25964169999861,1,1,1,407,78
7500,1,0.703957499999888,3,5,3,408,78
7500,1,0.762033599999995,1,1,1,409,78
7500,1,0.473982699999397,1,2,1,410,78
7500,1,0.780983399999968,2,3,2,411,78
7500,1,0.427625999998781,2,4,2,412,78
7500,1,0.705310800000007,3,5,3,413,78
7500,1,0.779328000000532,3,6,3,414,78
7500,1,1.33032140000068,1,2,1,415,78
7500,1,0.62006990000009,3,5,3,416,78
7500,1,0.785298300001159,2,3,2,417,78
7500,1,1.07998339999904,3,6,3,418,78
7500,1,0.707377000000633,2,4,2,419,78
7500,1,0.605227000000014,1,1,1,420,78
7500,1,0.899388499999986,2,4,2,421,78
7500,1,0.757243300000482,2,4,2,422,78
7500,0,0.773341799998889,3,2,1,423,78
7500,1,0.716740599998957,3,6,3,424,78
7500,1,0.558001099998364,3,5,3,425,78
7500,1,0.685996599999271,2,3,2,426,78
7500,1,0.656625700001314,1,1,1,427,78
7500,1,0.660651500000313,3,6,3,428,78
7500,1,0.712290199999188,2,3,2,429,78
7500,1,0.946647999999186,3,5,3,430,78
7500,1,1.13905340000019,1,2,1,431,78
7500,1,1.0280473999992,2,4,2,432,78
7500,1,1.08899129999918,1,2,1,433,78
7500,1,0.667680899998231,1,1,1,434,78
7500,1,0.607430099998965,1,1,1,435,78
7500,1,0.573177600001145,3,5,3,436,78
7500,1,0.724808399998437,2,3,2,437,78
7500,1,0.829787800001213,3,6,3,438,78
7500,1,0.979391500000929,3,6,3,439,78
7500,1,0.506793699998525,3,5,3,440,78
7500,1,0.532642000000124,2,4,2,441,78
7500,1,1.12542060000123,2,3,2,442,78
7500,1,0.614604599999439,1,2,1,443,78
7500,1,0.852041200001622,2,3,2,444,78
7500,1,0.655626599998868,1,1,1,445,78
7500,0,0.692062099999021,3,2,1,446,78
7500,1,0.534704099998635,3,5,3,447,78
7500,1,0.686934800000017,1,1,1,448,78
7500,1,0.594047499998851,2,4,2,449,78
7500,1,0.82462950000081,3,6,3,450,78
7500,1,1.10199130000001,2,4,2,451,78
7500,1,0.679595999999947,3,5,3,452,78
7500,1,1.34735300000102,2,3,2,453,78
7500,1,0.603632099999231,1,1,1,454,78
7500,1,0.498066600001039,1,1,1,455,78
7500,1,0.716037500000311,3,6,3,456,78
7500,1,0.645012599999973,1,2,1,457,78
7500,1,0.593616699999984,2,3,2,458,78
7500,1,0.608587500000795,3,6,3,459,78
7500,1,0.454357700000401,3,5,3,460,78
7500,1,0.450581199998851,1,2,1,461,78
7500,1,0.550381699998979,2,4,2,462,78
7500,1,0.558652100000472,2,4,2,463,78
7500,1,0.598784800000431,1,1,1,464,78
7500,1,0.548567399999229,1,2,1,465,78
7500,1,0.532749999998487,3,6,3,466,78
7500,1,0.565286399998513,1,2,1,467,78
7500,1,0.572603099999469,2,3,2,468,78
7500,0,0.555197800000315,2,1,1,469,39
7500,0,0.491417799999908,2,2,3,470,39
7500,0,0.317927899999631,2,3,3,471,39
7500,1,0.415269799999805,3,3,3,472,39
7500,0,0.700239800000418,3,1,1,473,39
7500,1,0.814598099999785,3,3,3,474,39
7500,1,0.939977699999872,3,2,3,475,39
7500,1,0.428699399999459,1,1,1,476,39
7500,1,0.617642200000773,3,2,3,477,39
7500,0,0.767321999999695,3,1,1,478,39
7500,1,0.630597699999271,3,2,3,479,39
7500,1,0.435019600001397,3,3,3,480,39
7500,1,0.471669299999121,3,3,3,481,39
7500,1,0.427316400000564,3,2,3,482,39
7500,1,0.480666100000235,1,1,1,483,39
7500,1,0.476028700000825,3,2,3,484,39
7500,1,0.646996299999955,3,3,3,485,39
7500,1,0.603925999999774,1,1,1,486,39
7500,1,0.713995699999941,3,3,3,487,39
7500,1,1.00391210000089,3,2,3,488,39
7500,1,0.545897899999545,1,1,1,489,39
7500,1,0.60260179999932,1,1,1,490,39
7500,1,0.568584000000556,3,3,3,491,39
7500,1,0.62368989999959,1,1,1,492,39
7500,1,0.59703780000018,3,2,3,493,39
7500,1,0.667891099999906,3,2,3,494,39
7500,1,0.66335380000055,3,3,3,495,39
7500,1,0.667360299999928,3,2,3,496,39
7500,1,0.622696799999176,1,1,1,497,39
7500,1,0.611947100000179,3,3,3,498,39
7500,1,0.593642200001341,3,3,3,499,39
7500,1,0.664552300000651,3,2,3,500,39
7500,1,0.507576500000141,3,3,3,501,39
7500,1,0.341977199999747,1,1,1,502,39
7500,1,0.686613500000021,3,2,3,503,39
7500,1,0.456967900001473,1,1,1,504,39
7500,1,0.693210299999919,1,1,1,505,39
7500,1,0.479927299998963,3,3,3,506,39
7500,1,0.771259400000417,3,2,3,507,39
7500,1,0.477956799999447,2,1,2,508,39
7500,1,0.769681099998706,2,2,2,509,39
7500,0,0.361243600000307,3,3,1,510,39
7500,1,0.49731679999968,1,3,1,511,39
7500,1,0.699256899999455,2,1,2,512,39
7500,1,0.581305199999406,1,3,1,513,39
7500,1,0.835913400000209,2,2,2,514,39
7500,1,0.6005339000003,2,1,2,515,39
7500,1,0.950691699999879,2,2,2,516,39
7500,1,0.518678700000237,2,1,2,517,39
7500,1,0.592036000000007,2,2,2,518,39
7500,1,0.45466370000031,1,3,1,519,39
7500,1,0.402558300000237,1,3,1,520,39
7500,1,0.624296600000889,2,2,2,521,39
7500,1,0.717603000000963,2,1,2,522,39
7500,1,0.542951100000209,2,2,2,523,39
7500,1,0.567991599999004,1,3,1,524,39
7500,1,0.607340299999123,2,1,2,525,39
7500,1,0.741369700001087,1,3,1,526,39
7500,1,0.557918800001062,2,2,2,527,39
7500,1,0.693876899998941,2,1,2,528,39
7500,1,0.976709099999425,2,1,2,529,39
7500,1,0.60000890000083,1,3,1,530,39
7500,1,0.469664899999771,2,1,2,531,39
7500,1,0.632937899999888,2,2,2,532,39
7500,0,0.381912399998328,1,2,2,533,39
7500,1,0.372693100000106,1,3,1,534,39
7500,1,0.875961699999607,2,2,2,535,39
7500,1,0.559385399999883,2,1,2,536,39
7500,1,0.559046800000942,1,3,1,537,39
7500,1,0.519347699999344,1,3,1,538,39
7500,1,0.760287600000083,2,2,2,539,39
7500,1,0.792696500000602,1,3,1,540,39
7500,1,0.503408799999306,2,1,2,541,39
7500,1,0.393327199999476,2,2,2,542,39
7500,1,0.439998899999409,2,1,2,543,39
7500,1,0.348711800001183,2,1,2,544,39
7500,1,0.628703999998834,1,3,1,545,39
7500,1,0.546073199999228,2,2,2,546,39
7500,1,0.661955999999918,2,1,2,547,78
7500,1,0.545953500000905,2,2,2,548,78
7500,1,0.874693199999456,3,3,3,549,78
7500,1,0.581917800000156,3,4,3,550,78
7500,1,0.348676200001137,1,5,1,551,78
7500,1,0.628662099999929,1,6,1,552,78
7500,1,0.601925799999663,2,1,2,553,78
7500,0,1.07963030000064,3,5,1,554,78
7500,1,1.03522460000022,3,4,3,555,78
7500,1,0.919947800000955,3,3,3,556,78
7500,1,1.04133599999841,2,2,2,557,78
7500,1,1.33401459999914,3,3,3,558,78
7500,1,1.0945488999987,3,4,3,559,78
7500,1,1.31292580000081,1,6,1,560,78
7500,1,0.499314000000595,1,6,1,561,78
7500,1,1.41333840000152,2,2,2,562,78
7500,1,0.763322400000106,2,1,2,563,78
7500,-1,-1,-1,5,1,564,78
7500,1,0.621001299999989,2,1,2,565,78
7500,1,0.562633799998366,2,2,2,566,78
7500,1,0.546285000000353,3,3,3,567,78
7500,1,0.46731120000004,3,4,3,568,78
7500,1,0.382565300000351,1,5,1,569,78
7500,1,0.556967900000018,1,6,1,570,78
7500,1,0.82930419999866,2,2,2,571,78
7500,0,0.890482299999348,3,5,1,572,78
7500,1,0.541305000000648,3,3,3,573,78
7500,1,0.669881499999974,1,6,1,574,78
7500,1,1.24137390000033,3,4,3,575,78
7500,1,0.613671200000681,2,1,2,576,78
7500,1,0.715674999999464,3,4,3,577,78
7500,1,0.549260300000242,3,4,3,578,78
7500,1,1.02099520000047,2,2,2,579,78
7500,1,0.874623200001224,1,6,1,580,78
7500,1,0.669695299999148,1,5,1,581,78
7500,1,0.71331629999986,3,3,3,582,78
7500,1,1.01101299999937,2,1,2,583,78
7500,1,0.641320799999448,1,6,1,584,78
7500,1,0.709905199999412,3,3,3,585,78
7500,1,0.711971099999573,1,5,1,586,78
7500,1,0.76966689999972,2,2,2,587,78
7500,1,0.825291299999662,3,4,3,588,78
7500,1,0.838669200000368,2,2,2,589,78
7500,1,0.779302599999937,2,1,2,590,78
7500,1,0.890687600000092,2,1,2,591,78
7500,1,0.765310099999624,1,5,1,592,78
7500,1,1.28435249999893,3,3,3,593,78
7500,1,0.711347200000091,1,6,1,594,78
7500,1,0.457247799999095,1,6,1,595,78
7500,1,0.693205200001103,1,5,1,596,78
7500,1,0.656013199999506,3,4,3,597,78
7500,1,1.49964519999958,3,3,3,598,78
7500,1,0.77370830000109,2,2,2,599,78
7500,1,0.693238800000472,3,3,3,600,78
7500,1,0.767954699998882,2,1,2,601,78
7500,1,0.791389899999558,2,2,2,602,78
7500,1,0.92601889999969,1,5,1,603,78
7500,1,1.14296029999969,2,1,2,604,78
7500,1,0.639666600000055,3,4,3,605,78
7500,1,1.04435799999919,1,6,1,606,78
7500,1,1.09702259999904,3,4,3,607,78
7500,1,1.02000899999985,1,5,1,608,78
7500,1,1.13721609999993,3,3,3,609,78
7500,1,0.561991500000659,2,1,2,610,78
7500,1,0.610037599999487,2,1,2,611,78
7500,1,0.672050099999979,1,6,1,612,78
7500,1,0.691324200000963,2,2,2,613,78
7500,1,0.72564390000116,3,3,3,614,78
7500,1,0.607053800000358,1,6,1,615,78
7500,1,0.765031400000225,1,5,1,616,78
7500,1,0.844590199998493,2,2,2,617,78
7500,1,0.793235299999651,3,4,3,618,78
7500,1,0.527997600000162,3,4,3,619,78
7500,1,0.625258599999142,2,1,2,620,78
7500,1,0.750670199999149,2,2,2,621,78
7500,1,0.590612500000134,1,6,1,622,78
7500,1,0.733258499998556,2,2,2,623,78
7500,1,0.69393669999954,3,3,3,624,78
7500,0,0.411400799999683,2,1,3,625,39
7500,1,0.408968600000662,2,2,2,626,39
7500,0,0.423246599999402,2,3,3,627,39
7500,1,0.73266109999895,3,3,3,628,39
7500,0,0.757398300000204,1,1,3,629,39
7500,1,0.829231899999286,3,3,3,630,39
7500,1,0.51432240000031,2,2,2,631,39
7500,1,0.48403640000106,3,1,3,632,39
7500,1,0.686663500000577,2,2,2,633,39
7500,1,0.761003499999788,3,1,3,634,39
7500,1,0.505329399999027,2,2,2,635,39
7500,1,0.611284999999043,3,3,3,636,39
7500,1,0.41736309999942,3,3,3,637,39
7500,1,0.510663299999578,2,2,2,638,39
7500,1,0.744666000000507,3,1,3,639,39
7500,1,0.537284500000169,2,2,2,640,39
7500,1,0.537686300000132,3,3,3,641,39
7500,1,0.914340200000879,3,1,3,642,39
7500,1,0.556003400000918,3,3,3,643,39
7500,1,0.555952999999135,2,2,2,644,39
7500,1,0.651664000000892,3,1,3,645,39
7500,1,0.455653500001063,3,1,3,646,39
7500,1,0.659927300001073,3,3,3,647,39
7500,1,0.45595449999928,3,1,3,648,39
7500,1,0.49203480000142,2,2,2,649,39
7500,1,0.678671499999837,2,2,2,650,39
7500,1,0.497618999999759,3,3,3,651,39
7500,0,0.38766140000007,3,2,2,652,39
7500,1,0.954550300000847,3,1,3,653,39
7500,1,0.618307800001276,3,3,3,654,39
7500,1,0.415980599998875,3,3,3,655,39
7500,1,0.484996500001216,2,2,2,656,39
7500,1,0.535624000000098,3,3,3,657,39
7500,1,0.480583200000183,3,1,3,658,39
7500,1,0.499956700001349,2,2,2,659,39
7500,1,0.509617499999877,3,1,3,660,39
7500,1,0.535603700000138,3,1,3,661,39
7500,1,0.592299199999616,3,3,3,662,39
7500,1,0.519336199999088,2,2,2,663,39
7500,0,0.566089500000089,2,1,3,664,78
7500,0,0.59797350000008,2,2,3,665,78
7500,0,0.395646099999794,2,3,1,666,78
7500,0,0.370291299999735,2,4,1,667,78
7500,1,0.369972000000416,2,5,2,668,78
7500,1,0.433559600000081,2,6,2,669,78
7500,1,0.581621299999824,3,1,3,670,78
7500,1,1.34055239999907,2,5,2,671,78
7500,-1,-1,-1,4,1,672,78
7500,1,1.19936579999921,1,3,1,673,78
7500,0,0.637377400000332,1,2,3,674,78
7500,1,1.48969229999966,1,3,1,675,78
7500,1,1.12438079999993,1,4,1,676,78
7500,1,1.35804050000115,2,6,2,677,78
7500,1,0.525969400001486,2,6,2,678,78
7500,1,1.0152608999997,3,2,3,679,78
7500,1,0.548614900000757,3,1,3,680,78
7500,1,0.988355800000136,2,5,2,681,78
7500,1,1.06701059999978,3,1,3,682,78
7500,1,0.886269200000243,3,2,3,683,78
7500,1,0.497004700000616,1,3,1,684,78
7500,1,0.515973399998984,1,4,1,685,78
7500,1,0.67736160000095,2,5,2,686,78
7500,1,0.712729100001525,2,6,2,687,78
7500,1,0.570652899999914,3,2,3,688,78
7500,1,0.85765149999861,2,5,2,689,78
7500,1,0.773633299999346,1,3,1,690,78
7500,1,0.796957700000348,2,6,2,691,78
7500,-1,-1,-1,4,1,692,78
7500,1,0.973922600000151,3,1,3,693,78
7500,1,1.04536989999906,1,4,1,694,78
7500,1,0.497882300000128,1,4,1,695,78
7500,1,0.579975800001193,3,2,3,696,78
7500,1,0.642961999999898,2,6,2,697,78
7500,1,0.847962499999994,2,5,2,698,78
7500,1,0.915950900000098,1,3,1,699,78
7500,1,0.70928670000103,3,1,3,700,78
7500,1,0.615309999999226,2,6,2,701,78
7500,1,0.62057360000108,1,3,1,702,78
7500,1,0.841622300000381,2,5,2,703,78
7500,1,0.5823218000005,3,2,3,704,78
7500,1,1.22123180000017,1,4,1,705,78
7500,1,0.746544599998742,3,2,3,706,78
7500,1,0.579293700000562,3,1,3,707,78
7500,1,0.546200599999793,3,1,3,708,78
7500,1,0.675346699999864,2,5,2,709,78
7500,1,0.670675300001676,1,3,1,710,78
7500,1,0.737884699999995,2,6,2,711,78
7500,1,0.506559600000401,2,6,2,712,78
7500,1,0.692535100000896,2,5,2,713,78
7500,1,0.607329599999503,1,4,1,714,78
7500,1,0.789289099999223,1,3,1,715,78
7500,1,0.547916900000928,3,2,3,716,78
7500,1,0.780133599999317,1,3,1,717,78
7500,1,0.939256300000125,3,1,3,718,78
7500,1,0.755994099999953,3,2,3,719,78
7500,1,0.947985299999345,2,5,2,720,78
7500,1,0.691921399999046,3,1,3,721,78
7500,1,0.662772300000142,1,4,1,722,78
7500,1,0.71465360000002,2,6,2,723,78
7500,1,0.939988599999197,1,4,1,724,78
7500,1,0.868340700000772,2,5,2,725,78
7500,1,0.928057700000863,1,3,1,726,78
7500,1,0.67340730000069,3,1,3,727,78
7500,1,0.524647300000652,3,1,3,728,78
7500,1,0.773626300000615,2,6,2,729,78
7500,1,0.813012099999469,3,2,3,730,78
7500,1,0.58693520000088,1,3,1,731,78
7500,1,0.770056999999724,2,6,2,732,78
7500,1,0.753408599999602,2,5,2,733,78
7500,1,0.633292000000438,3,2,3,734,78
7500,1,0.605920100000731,1,4,1,735,78
7500,1,0.467902800000957,1,4,1,736,78
7500,1,0.775023899999724,3,1,3,737,78
7500,1,0.534679899999901,3,2,3,738,78
7500,1,0.599284699999771,2,6,2,739,78
7500,1,1.01328309999917,3,2,3,740,78
7500,1,0.658983400000579,1,3,1,741,78
7500,1,0.519992600000478,2,1,2,742,39
7500,0,0.593381599999702,2,2,1,743,39
7500,0,0.415956700000606,2,3,1,744,39
7500,1,1.14136390000021,1,3,1,745,39
7500,1,0.710061400000995,2,1,2,746,39
7500,1,0.688022300000739,1,3,1,747,39
7500,0,0.538657900000544,3,2,1,748,39
7500,1,0.955355599999166,2,1,2,749,39
7500,1,0.515339399998993,1,2,1,750,39
7500,1,0.564556499999526,2,1,2,751,39
7500,1,0.371718800000963,1,2,1,752,39
7500,1,0.379329700001108,1,3,1,753,39
7500,1,0.56260629999997,1,3,1,754,39
7500,1,0.818655899998703,1,2,1,755,39
7500,1,0.367709699999978,2,1,2,756,39
7500,1,0.895301299999119,1,2,1,757,39
7500,1,0.578025299999354,1,3,1,758,39
7500,1,0.329359900000782,2,1,2,759,39
7500,1,0.306330100000196,1,3,1,760,39
7500,1,0.460654200000135,1,2,1,761,39
7500,1,0.560613000001467,2,1,2,762,39
7500,0,0.432329500001288,1,1,2,763,39
7500,1,0.396991400000843,1,3,1,764,39
7500,1,0.555233600000065,2,1,2,765,39
7500,1,0.459349400000065,1,2,1,766,39
7500,1,0.463324399999692,1,2,1,767,39
7500,1,0.643459199998688,1,3,1,768,39
7500,1,0.456067900000562,1,2,1,769,39
7500,1,0.492060700000366,2,1,2,770,39
7500,1,0.894551499999579,1,3,1,771,39
7500,1,0.37715290000051,1,3,1,772,39
7500,1,0.400723699998707,1,2,1,773,39
7500,1,0.454561100001229,1,3,1,774,39
7500,1,0.68230720000065,2,1,2,775,39
7500,1,0.645257000000129,1,2,1,776,39
7500,0,0.377956100001029,1,1,2,777,39
7500,1,0.497366699999475,2,1,2,778,39
7500,1,0.410942100001193,1,3,1,779,39
7500,1,0.585276899999371,1,2,1,780,39
7501,0,0.774860199999239,2,1,1,1,39
7501,0,0.471020299999509,3,2,2,2,39
7501,1,0.442700800000239,2,3,2,3,39
7501,1,0.559419700000944,2,3,2,4,39
7501,0,0.575242099999741,3,1,1,5,39
7501,1,0.710542700000588,2,3,2,6,39
7501,0,0.504296900000554,1,2,2,7,39
7501,1,0.386568400001124,1,1,1,8,39
7501,0,0.345048299999689,3,2,2,9,39
7501,0,0.4659771000006,2,1,1,10,39
7501,1,0.533410300000469,2,2,2,11,39
7501,1,0.485987199999727,2,3,2,12,39
7501,0,0.392613300000448,1,3,2,13,39
7501,1,0.359264299999268,2,2,2,14,39
7501,1,0.351443800000197,1,1,1,15,39
7501,1,0.262875700000222,2,2,2,16,39
7501,1,0.339339399999517,2,3,2,17,39
7501,1,0.364022800000384,1,1,1,18,39
7501,1,0.371026800001346,1,1,1,19,39
7501,1,0.370650400000159,2,2,2,20,39
7501,1,0.353896599999644,2,3,2,21,39
7501,1,0.329907800000001,2,2,2,22,39
7501,1,0.323344100001123,2,3,2,23,39
7501,0,0.316351799998301,2,1,1,24,39
7501,1,0.365982200000872,1,1,1,25,39
7501,1,0.429222700000537,2,3,2,26,39
7501,1,0.442655300001206,2,2,2,27,39
7501,1,0.287359300000389,2,2,2,28,39
7501,0,0.353993699998682,1,3,2,29,39
7501,0,0.330036800000016,2,1,1,30,39
7501,1,0.323323699998582,2,3,2,31,39
7501,1,0.436615500000698,2,2,2,32,39
7501,0,0.305278399999224,2,1,1,33,39
7501,1,0.3073332999993,2,2,2,34,39
7501,1,0.461236499999359,2,3,2,35,39
7501,1,0.329047999999602,2,3,2,36,39
7501,0,0.282673399999112,2,1,1,37,39
7501,1,0.40530519999993,1,1,1,38,39
7501,1,0.323068400000921,2,2,2,39,39
7501,0,0.389201700001649,2,1,1,40,78
7501,0,0.356318099999044,3,2,1,41,78
7501,0,0.332553499998539,1,3,2,42,78
7501,1,0.261038500000723,2,4,2,43,78
7501,0,0.408969299998716,2,5,3,44,78
7501,0,0.3429425000013,2,6,3,45,78
7501,1,0.191674499999863,2,4,2,46,78
7501,0,0.350305699999808,2,6,3,47,78
7501,0,0.262597799999639,3,2,1,48,78
7501,1,0.226577899999029,1,1,1,49,78
7501,0,0.471749599999384,2,5,3,50,78
7501,0,0.363032600000224,3,4,2,51,78
7501,0,0.307283699999971,1,3,2,52,78
7501,0,0.0454198999996152,2,1,1,53,78
7501,1,0.162050799999633,3,6,3,54,78
7501,1,0.281975599998987,3,6,3,55,78
7501,0,0.31638219999877,2,2,1,56,78
7501,0,0.197996500000954,3,3,2,57,78
7501,1,0.291718899999978,1,1,1,58,78
7501,0,0.414349900000161,2,2,1,59,78
7501,1,0.403905299999678,2,3,2,60,78
7501,1,0.281947299999956,2,4,2,61,78
7501,0,0.300318399999014,1,5,3,62,78
7501,1,0.310725400000592,3,6,3,63,78
7501,0,0.448298400000567,2,2,1,64,78
7501,0,0.476602599999751,1,5,3,65,78
7501,0,0.359656900000118,2,1,1,66,78
7501,1,0.367611400000897,2,3,2,67,78
7501,1,0.447265499999048,3,6,3,68,78
7501,0,0.587266900000031,1,5,3,69,78
7501,1,0.3779684000001,2,4,2,70,78
7501,1,0.329277400000137,2,4,2,71,78
7501,0,0.330535600000076,3,1,1,72,78
7501,0,0.331382000000303,1,3,2,73,78
7501,0,0.460048500000994,2,2,1,74,78
7501,1,0.399555199999668,2,3,2,75,78
7501,1,0.493577500001265,3,6,3,76,78
7501,1,0.320583200000328,3,6,3,77,78
7501,0,0.401515800000197,2,5,3,78,78
7501,0,0.335649500000727,2,1,1,79,78
7501,0,0.352277500000127,2,5,3,80,78
7501,0,0.296369700001378,1,4,2,81,78
7501,1,0.31464909999886,1,1,1,82,78
7501,0,0.395936000000802,3,2,1,83,78
7501,0,0.314333199999965,1,5,3,84,78
7501,0,0.25195259999964,2,2,1,85,78
7501,0,0.407915300000241,1,3,2,86,78
7501,1,0.477571199999147,3,6,3,87,78
7501,1,0.344799799999237,2,4,2,88,78
7501,0,0.441624299999603,3,3,2,89,78
7501,0,0.438325600000098,2,2,1,90,78
7501,0,0.235017200000584,1,6,3,91,78
7501,0,0.455934700001308,1,5,3,92,78
7501,0,0.340028699998584,2,1,1,93,78
7501,1,0.348670199999106,2,4,2,94,78
7501,0,0.412569599999188,3,4,2,95,78
7501,1,0.434774100000141,3,6,3,96,78
7501,1,0.335269799999878,2,3,2,97,78
7501,1,0.384186900000714,2,3,2,98,78
7501,0,0.438627200001065,3,2,1,99,78
7501,1,0.475284300000567,1,1,1,100,78
7501,1,0.326359600001524,1,2,1,101,78
7501,1,0.455711799999335,3,6,3,102,78
7501,0,0.411736500000188,2,5,3,103,78
7501,0,0.36207099999956,2,1,1,104,78
7501,1,0.418057800001407,2,4,2,105,78
7501,0,0.447348300000158,1,5,3,106,78
7501,1,0.467011599999751,2,4,2,107,78
7501,0,0.294538100000864,2,1,1,108,78
7501,1,0.361232199998994,2,3,2,109,78
7501,1,0.289279800001168,3,6,3,110,78
7501,1,0.371879799999078,1,2,1,111,78
7501,1,0.371294200000193,1,2,1,112,78
7501,0,0.346505999999863,2,1,1,113,78
7501,1,0.403259300001082,2,4,2,114,78
7501,0,0.360990899998797,2,5,3,115,78
7501,1,0.433350700001029,3,6,3,116,78
7501,1,0.461937600000965,2,4,2,117,78
7501,0,0.535676900000908,2,1,1,118,39
7501,1,0.337124800000311,3,2,3,119,39
7501,0,0.313850500000626,1,3,3,120,39
7501,0,0.370957600000111,2,3,3,121,39
7501,1,0.234747299999071,1,1,1,122,39
7501,0,0.231216599999243,2,3,3,123,39
7501,1,0.291654500000732,3,2,3,124,39
7501,1,0.182376799999474,1,1,1,125,39
7501,0,0.109474999999293,1,2,3,126,39
7501,0,0.230971000000864,2,1,1,127,39
7501,0,0.283916000000318,1,2,3,128,39
7501,0,0.222504900000786,1,3,3,129,39
7501,1,0.32368519999909,3,3,3,130,39
7501,1,0.557126000001517,3,2,3,131,39
7501,0,0.5092695000003,2,1,1,132,39
7501,1,0.255279599999994,3,2,3,133,39
7501,1,0.283323399999063,3,3,3,134,39
7501,1,0.278011599999445,1,1,1,135,39
7501,0,0.265401099999508,3,1,1,136,39
7501,1,0.236529499999961,3,2,3,137,39
7501,1,0.329257700001108,3,3,3,138,39
7501,1,0.338707099999738,3,2,3,139,39
7501,1,0.354983900000661,3,3,3,140,39
7501,1,0.307266099998742,1,1,1,141,39
7501,0,0.333230399999593,3,1,1,142,39
7501,1,0.357998299999963,3,3,3,143,39
7501,1,0.358017500000642,3,2,3,144,39
7501,1,0.406022099999973,3,2,3,145,39
7501,0,0.227970400001141,1,3,3,146,39
7501,1,0.473380600000382,1,1,1,147,39
7501,1,0.380643399999826,3,3,3,148,39
7501,1,0.331207299999733,3,2,3,149,39
7501,0,0.331847800000105,3,1,1,150,39
7501,1,0.252633399999468,3,2,3,151,39
7501,1,0.632566399999632,3,3,3,152,39
7501,1,0.604929699999047,3,3,3,153,39
7501,1,0.523275600000488,1,1,1,154,39
7501,1,0.636683099999573,1,1,1,155,39
7501,1,0.537335700000767,3,2,3,156,39
7501,1,0.810554199999387,2,1,2,157,39
7501,0,0.505148700000063,3,2,2,158,39
7501,0,0.307337800000823,2,3,1,159,39
7501,0,0.413284799999019,3,3,1,160,39
7501,1,0.635248900000079,2,1,2,161,39
7501,1,0.344040599999062,1,3,1,162,39
7501,0,0.304651300000842,3,2,2,163,39
7501,0,0.626601599999049,1,1,2,164,39
7501,0,0.327665999999226,1,2,2,165,39
7501,1,0.464958099999421,2,1,2,166,39
7501,1,0.396676700000171,2,2,2,167,39
7501,1,0.363410399999339,1,3,1,168,39
7501,1,0.411064500000066,1,3,1,169,39
7501,1,0.649151199999324,2,2,2,170,39
7501,1,0.684930499999609,2,1,2,171,39
7501,1,0.415693400000237,2,2,2,172,39
7501,1,0.557257200000095,1,3,1,173,39
7501,1,0.461318600000595,2,1,2,174,39
7501,1,0.400987099999838,2,1,2,175,39
7501,1,0.358974299999318,2,2,2,176,39
7501,1,0.295224999999846,1,3,1,177,39
7501,1,0.48998180000126,2,2,2,178,39
7501,1,0.532588199999736,1,3,1,179,39
7501,1,0.501230599998962,2,1,2,180,39
7501,1,0.670964999999342,2,1,2,181,39
7501,1,0.482642299999497,1,3,1,182,39
7501,1,0.42115609999928,2,2,2,183,39
7501,1,0.60247309999977,2,2,2,184,39
7501,1,0.464689300000828,1,3,1,185,39
7501,1,0.44388489999983,2,1,2,186,39
7501,1,0.480353699998886,1,3,1,187,39
7501,1,0.626955600000656,2,2,2,188,39
7501,1,0.480649400000402,2,1,2,189,39
7501,1,0.579411299999265,2,2,2,190,39
7501,1,0.426361799998631,1,3,1,191,39
7501,1,0.551765899999737,1,3,1,192,39
7501,1,0.400078799999392,2,1,2,193,39
7501,1,0.406019500000184,2,1,2,194,39
7501,1,0.508031299999857,2,2,2,195,39
7501,0,0.645577799999955,1,1,2,196,78
7501,0,0.786591599999156,3,2,2,197,78
7501,0,0.441201800000272,2,3,3,198,78
7501,0,0.637942600000315,2,4,3,199,78
7501,0,0.538660700000037,3,5,1,200,78
7501,1,0.571217499998966,1,6,1,201,78
7501,1,0.626593800001501,3,4,3,202,78
7501,1,0.703652000000147,1,6,1,203,78
7501,1,0.561620700000276,2,2,2,204,78
7501,1,0.873566799999026,2,1,2,205,78
7501,0,0.805287299999691,2,5,1,206,78
7501,1,0.723355900001479,3,4,3,207,78
7501,0,0.804786800001239,1,3,3,208,78
7501,1,0.810358199998518,2,1,2,209,78
7501,1,0.62462510000114,1,6,1,210,78
7501,1,0.581863100000191,1,6,1,211,78
7501,1,0.836737000001449,2,2,2,212,78
7501,0,0.69700389999889,1,3,3,213,78
7501,1,0.778913100000864,2,1,2,214,78
7501,1,1.09824990000016,2,2,2,215,78
7501,0,0.83658959999957,2,3,3,216,78
7501,1,0.769348699999682,3,4,3,217,78
7501,0,0.728659200000038,3,5,1,218,78
7501,1,0.537592599999698,1,6,1,219,78
7501,1,1.20266139999876,2,2,2,220,78
7501,0,0.952724499999022,3,5,1,221,78
7501,1,0.704686299999594,2,1,2,222,78
7501,1,1.06657890000133,3,3,3,223,78
7501,1,0.517620099999476,1,6,1,224,78
7501,1,0.847303200000169,1,5,1,225,78
7501,1,0.747080099999948,3,4,3,226,78
7501,1,0.70723580000049,3,4,3,227,78
7501,1,0.68531940000139,2,1,2,228,78
7501,0,1.29591230000005,2,3,3,229,78
7501,1,1.43425770000067,2,2,2,230,78
7501,1,0.591029499999422,3,3,3,231,78
7501,1,0.477951599999869,1,6,1,232,78
7501,1,0.681338399999731,1,6,1,233,78
7501,1,1.09163860000081,1,5,1,234,78
7501,1,0.910844399999405,2,1,2,235,78
7501,0,0.976604900000893,3,5,1,236,78
7501,1,0.50396069999988,3,4,3,237,78
7501,1,0.713901699999042,2,1,2,238,78
7501,1,0.827315499998804,2,2,2,239,78
7501,1,1.40867070000058,1,5,1,240,78
7501,1,0.798592499999359,2,2,2,241,78
7501,1,0.772561300000234,3,3,3,242,78
7501,1,0.572099200000594,1,6,1,243,78
7501,1,0.947212299999592,3,4,3,244,78
7501,-1,-1,-1,3,3,245,78
7501,1,1.02095609999924,2,2,2,246,78
7501,1,0.514594899999793,1,6,1,247,78
7501,1,0.836031400000138,1,5,1,248,78
7501,1,0.560658899999908,2,1,2,249,78
7501,1,0.608557199999268,3,4,3,250,78
7501,1,0.558824699999604,3,4,3,251,78
7501,1,0.454698199999257,1,6,1,252,78
7501,1,0.682311000000482,3,3,3,253,78
7501,1,0.445073500000944,3,3,3,254,78
7501,1,0.58595779999996,2,2,2,255,78
7501,1,0.38469410000107,2,1,2,256,78
7501,0,0.895263700000214,1,2,2,257,78
7501,1,0.497664799999257,1,6,1,258,78
7501,1,0.83602719999908,1,5,1,259,78
7501,1,0.576550700001462,2,1,2,260,78
7501,1,0.535622699999294,3,4,3,261,78
7501,1,0.880500900000698,1,5,1,262,78
7501,1,0.523337299999184,3,4,3,263,78
7501,1,0.476490699998976,2,1,2,264,78
7501,1,0.919974399999774,3,3,3,265,78
7501,1,0.48145409999961,1,6,1,266,78
7501,0,0.468105800000558,3,2,2,267,78
7501,1,0.423234300000331,2,2,2,268,78
7501,1,0.460631800000556,2,1,2,269,78
7501,1,0.504286399998819,3,4,3,270,78
7501,1,0.8667645000005,1,5,1,271,78
7501,1,0.501967099999092,1,6,1,272,78
7501,1,0.495674099998723,3,4,3,273,78
7501,0,0.68782309999915,1,1,3,274,39
7501,0,0.338659600000028,3,2,2,275,39
7501,0,0.483275599999615,2,3,3,276,39
7501,1,0.541996500000096,3,3,3,277,39
7501,0,0.566650499999014,1,1,3,278,39
7501,0,0.565724200001569,2,3,3,279,39
7501,0,0.493214800000715,1,2,2,280,39
7501,0,0.807911500000046,2,1,3,281,39
7501,0,0.541889200001606,3,2,2,282,39
7501,0,0.6945668999997,1,1,3,283,39
7501,0,0.681298400000742,3,2,2,284,39
7501,1,0.595654300001115,3,3,3,285,39
7501,1,0.666471700000329,3,3,3,286,39
7501,0,0.341872700000749,1,2,2,287,39
7501,0,0.470261799999207,1,1,3,288,39
7501,0,0.497922100001233,3,2,2,289,39
7501,1,0.635982499999955,3,3,3,290,39
7501,0,0.760651900000084,1,1,3,291,39
7501,0,0.544681499999569,2,1,3,292,39
7501,1,0.745220399998288,2,2,2,293,39
7501,1,0.649971999999252,3,3,3,294,39
7501,1,0.773910600000818,2,2,2,295,39
7501,1,0.637004300000626,3,3,3,296,39
7501,1,0.71386050000001,3,1,3,297,39
7501,1,0.970939499999076,3,1,3,298,39
7501,1,0.45862489999854,3,3,3,299,39
7501,1,0.614697300001353,2,2,2,300,39
7501,1,0.643939100000352,2,2,2,301,39
7501,1,0.792306600000302,3,3,3,302,39
7501,1,0.65513110000029,3,1,3,303,39
7501,1,0.627011399999901,3,3,3,304,39
7501,1,0.552742800000487,2,2,2,305,39
7501,1,0.640683899999203,3,1,3,306,39
7501,0,0.300969700001588,3,2,2,307,39
7501,1,0.559226099998341,3,3,3,308,39
7501,1,0.503299500000139,3,3,3,309,39
7501,1,0.44123959999888,3,1,3,310,39
7501,1,0.430050299999493,3,1,3,311,39
7501,1,0.395266100000299,2,2,2,312,39
7501,0,0.977277600000889,1,1,3,313,78
7501,1,0.432476899999529,3,2,3,314,78
7501,0,0.613288600001397,2,3,1,315,78
7501,1,0.539089899999453,1,4,1,316,78
7501,1,0.651611100000082,2,5,2,317,78
7501,0,0.631645600000411,3,6,2,318,78
7501,1,0.692325299998629,1,4,1,319,78
7501,1,0.719026299999314,2,6,2,320,78
7501,1,0.888602200000605,3,2,3,321,78
7501,0,0.331228299999566,1,1,3,322,78
7501,1,0.652016799998819,2,5,2,323,78
7501,0,0.727967599999829,2,4,1,324,78
7501,1,0.641385699998864,1,3,1,325,78
7501,0,0.525798399999985,2,1,3,326,78
7501,0,0.671023200000491,3,6,2,327,78
7501,0,0.546649300000354,1,6,2,328,78
7501,0,0.523171700000603,2,2,3,329,78
7501,1,0.596660900000643,1,3,1,330,78
7501,1,0.802611299999626,3,1,3,331,78
7501,1,0.360626800000318,3,2,3,332,78
7501,1,0.704800499999692,1,3,1,333,78
7501,0,0.498691400000098,2,4,1,334,78
7501,1,0.596632200000386,2,5,2,335,78
7501,1,0.506583399999727,2,6,2,336,78
7501,1,0.53268990000106,3,2,3,337,78
7501,0,0.581160300000192,1,5,2,338,78
7501,1,0.931601700000101,3,1,3,339,78
7501,1,0.500667199999953,1,3,1,340,78
7501,0,0.734682000000248,1,6,2,341,78
7501,1,0.767350499998429,2,5,2,342,78
7501,1,0.926752500001385,1,4,1,343,78
7501,1,0.615674099999524,1,4,1,344,78
7501,1,0.556869099998949,3,1,3,345,78
7501,1,0.565537300000869,1,3,1,346,78
7501,1,0.596790999999939,3,2,3,347,78
7501,1,0.635369899999205,1,3,1,348,78
7501,1,0.567664300000615,2,6,2,349,78
7501,1,0.471297399999457,2,6,2,350,78
7501,1,0.40258619999986,2,5,2,351,78
7501,1,0.536694899999929,3,1,3,352,78
7501,0,0.345260000000053,3,5,2,353,78
7501,1,0.6180602000004,1,4,1,354,78
7501,1,0.583308799999941,3,1,3,355,78
7501,1,0.589617199999338,3,2,3,356,78
7501,1,0.708717399998932,2,5,2,357,78
7501,1,0.574303499999587,3,2,3,358,78
7501,1,0.469968699999299,1,3,1,359,78
7501,1,0.753479099999822,2,6,2,360,78
7501,1,0.545346799999606,1,4,1,361,78
7501,1,0.513643399999637,1,3,1,362,78
7501,1,0.546903200000088,3,2,3,363,78
7501,1,0.611335499999768,2,6,2,364,78
7501,1,1.12933849999899,2,5,2,365,78
7501,1,0.474680799999987,3,1,3,366,78
7501,1,0.533627400000114,1,4,1,367,78
7501,1,0.486461799999233,1,4,1,368,78
7501,1,0.593425000000934,2,6,2,369,78
7501,1,0.55164909999985,1,3,1,370,78
7501,1,0.487859499999104,1,3,1,371,78
7501,1,0.514332799999465,3,2,3,372,78
7501,1,0.523961400000189,3,1,3,373,78
7501,1,0.525055000000066,3,2,3,374,78
7501,1,0.486623700000564,2,6,2,375,78
7501,1,0.465150400001221,2,5,2,376,78
7501,1,0.596694500000012,3,1,3,377,78
7501,1,0.531302999999753,1,4,1,378,78
7501,1,0.531864000000496,2,5,2,379,78
7501,1,0.532657699999618,1,4,1,380,78
7501,1,0.613181099999565,3,1,3,381,78
7501,1,0.579427700000451,1,3,1,382,78
7501,1,0.674492899999677,2,6,2,383,78
7501,1,0.725653400000738,3,2,3,384,78
7501,1,0.527409800000896,3,2,3,385,78
7501,1,0.568305200000395,3,1,3,386,78
7501,1,0.455938900000547,1,4,1,387,78
7501,1,0.444061799998963,2,5,2,388,78
7501,1,0.520615199999156,2,6,2,389,78
7501,1,0.474140399999669,1,4,1,390,78
7501,0,0.587968399999227,2,1,1,391,78
7501,0,0.426706599999306,2,2,1,392,78
7501,1,0.343958499999644,2,3,2,393,78
7501,1,0.456348800000342,2,4,2,394,78
7501,0,0.300623999999516,2,5,3,395,78
7501,0,0.254238000001351,2,6,3,396,78
7501,1,0.346670799999629,2,4,2,397,78
7501,1,0.514938599999368,3,6,3,398,78
7501,1,0.68429979999928,1,2,1,399,78
7501,0,0.575315699999919,3,1,1,400,78
7501,0,0.638344400000278,1,5,3,401,78
7501,1,0.507089200000337,2,4,2,402,78
7501,1,0.461306400000467,2,3,2,403,78
7501,1,0.441329400000541,1,1,1,404,78
7501,0,0.53405070000008,1,6,3,405,78
7501,0,0.430609699998968,2,6,3,406,78
7501,0,0.603328299999703,3,2,1,407,78
7501,1,0.569310400000177,2,3,2,408,78
7501,1,0.672681700001704,1,1,1,409,78
7501,1,0.691662799999904,1,2,1,410,78
7501,1,0.622316499999215,2,3,2,411,78
7501,0,0.532000199998947,3,4,2,412,78
7501,1,0.532320700000128,3,5,3,413,78
7501,1,0.388939899999968,3,6,3,414,78
7501,1,0.507883100000981,1,2,1,415,78
7501,1,0.645949900001142,3,5,3,416,78
7501,1,0.618786699998964,1,1,1,417,78
7501,1,0.607809000000998,2,3,2,418,78
7501,1,0.613957600000504,3,6,3,419,78
7501,1,0.547387299999173,3,5,3,420,78
7501,1,0.635236799998893,2,4,2,421,78
7501,1,0.51977369999986,2,4,2,422,78
7501,1,0.52136960000098,1,1,1,423,78
7501,1,0.618384800000058,2,3,2,424,78
7501,1,0.423653300000296,1,2,1,425,78
7501,1,0.589244699998744,2,3,2,426,78
7501,1,0.651999700001397,3,6,3,427,78
7501,1,0.431684600000153,3,6,3,428,78
7501,1,0.67666250000002,3,5,3,429,78
7501,1,0.591921799999909,1,1,1,430,78
7501,1,0.726323400000183,3,5,3,431,78
7501,1,0.512033099999826,2,4,2,432,78
7501,1,0.585739300000569,1,1,1,433,78
7501,1,0.464455499999531,1,2,1,434,78
7501,1,0.659557799999675,3,5,3,435,78
7501,1,0.480000100000325,1,2,1,436,78
7501,1,0.61098579999998,2,3,2,437,78
7501,1,0.520943099998476,3,6,3,438,78
7501,1,0.4906718000002,2,4,2,439,78
7501,1,0.556984400000147,2,3,2,440,78
7501,1,0.573388200000409,1,2,1,441,78
7501,1,0.564381099999082,3,6,3,442,78
7501,1,0.55600079999931,3,5,3,443,78
7501,1,0.531898199998977,1,1,1,444,78
7501,1,0.564616400000887,2,4,2,445,78
7501,1,0.451995699999316,2,4,2,446,78
7501,1,0.527972500000033,3,6,3,447,78
7501,1,0.593342800000755,2,3,2,448,78
7501,1,0.496001600000454,2,3,2,449,78
7501,1,0.498748400001205,1,2,1,450,78
7501,1,0.540632799999003,1,1,1,451,78
7501,1,0.509275500000513,1,2,1,452,78
7501,1,0.550920600000609,3,6,3,453,78
7501,1,0.559320899999875,3,5,3,454,78
7501,1,0.519245399998908,1,1,1,455,78
7501,1,0.52068859999963,2,4,2,456,78
7501,1,0.617719699999725,3,5,3,457,78
7501,1,0.527212999999392,2,4,2,458,78
7501,1,0.520559899998261,1,1,1,459,78
7501,1,0.570060799998828,2,3,2,460,78
7501,1,0.601010700000188,3,6,3,461,78
7501,1,0.463327899999058,1,2,1,462,78
7501,1,0.427200699999958,1,2,1,463,78
7501,1,0.512567300000228,1,1,1,464,78
7501,0,0.37852870000097,3,4,2,465,78
7501,1,0.45791300000019,3,5,3,466,78
7501,1,0.437941000000137,3,6,3,467,78
7501,1,0.314567600000373,2,4,2,468,78
7501,0,0.55118179999954,2,1,1,469,39
7501,0,0.223280000000159,2,2,3,470,39
7501,0,0.228310299999066,2,3,3,471,39
7501,1,0.345937199999753,3,3,3,472,39
7501,1,0.442245500000354,1,1,1,473,39
7501,1,0.399018100000831,3,3,3,474,39
7501,0,0.452922599999511,1,2,3,475,39
7501,0,0.75321780000013,3,1,1,476,39
7501,1,0.369053399999757,3,2,3,477,39
7501,1,0.624626300001182,1,1,1,478,39
7501,1,0.334035899999435,3,2,3,479,39
7501,1,0.438608000000386,3,3,3,480,39
7501,1,0.362858799999231,3,3,3,481,39
7501,1,0.39523779999945,3,2,3,482,39
7501,1,0.346002500000395,1,1,1,483,39
7501,1,0.394544400000086,3,2,3,484,39
7501,1,0.377015199999732,3,3,3,485,39
7501,1,0.33664360000148,1,1,1,486,39
7501,1,0.489185399999769,1,1,1,487,39
7501,1,0.436026400000628,3,2,3,488,39
7501,1,0.472289200000887,3,3,3,489,39
7501,1,0.46806049999941,3,2,3,490,39
7501,1,0.439329299999372,3,3,3,491,39
7501,1,0.420099400000254,1,1,1,492,39
7501,1,0.361298299998452,1,1,1,493,39
7501,1,0.368961399999534,3,3,3,494,39
7501,1,0.432241700000304,3,2,3,495,39
7501,1,0.405170199999702,3,2,3,496,39
7501,1,0.395256600000721,3,3,3,497,39
7501,1,0.417692200000602,1,1,1,498,39
7501,1,0.343344499999148,3,3,3,499,39
7501,1,0.383704500000022,3,2,3,500,39
7501,1,0.374673500000426,1,1,1,501,39
7501,1,0.350053399999524,3,2,3,502,39
7501,1,0.365909099999044,3,3,3,503,39
7501,1,0.445215499999904,3,3,3,504,39
7501,1,0.505968599998596,1,1,1,505,39
7501,1,0.451643799999147,1,1,1,506,39
7501,1,0.392084199998862,3,2,3,507,39
7501,0,0.390016900000774,1,1,2,508,39
7501,0,0.532205899999099,3,2,2,509,39
7501,1,0.365483099998528,1,3,1,510,39
7501,0,0.436538100000689,2,3,1,511,39
7501,1,0.488976099999491,2,1,2,512,39
7501,1,0.69202949999999,1,3,1,513,39
7501,0,0.566300899999987,3,2,2,514,39
7501,1,0.749849699999686,2,1,2,515,39
7501,1,0.341910499999358,2,2,2,516,39
7501,1,0.454654199998913,2,1,2,517,39
7501,1,0.354568599999766,2,2,2,518,39
7501,1,0.346311299999797,1,3,1,519,39
7501,1,0.315371599999708,1,3,1,520,39
7501,1,0.39666170000055,2,2,2,521,39
7501,1,0.307286999999633,2,1,2,522,39
7501,1,0.388915100000304,2,2,2,523,39
7501,1,0.459589800000685,1,3,1,524,39
7501,1,0.431954599998789,2,1,2,525,39
7501,1,0.364337599999999,2,1,2,526,39
7501,1,0.331987699999445,2,2,2,527,39
7501,1,0.308352699999887,1,3,1,528,39
7501,1,0.42246509999859,2,2,2,529,39
7501,1,0.531647899999371,1,3,1,530,39
7501,1,0.396632599999066,2,1,2,531,39
7501,1,0.499362900000051,2,1,2,532,39
7501,1,0.493332000000009,1,3,1,533,39
7501,1,0.368118000000322,2,2,2,534,39
7501,1,0.423262700000123,2,2,2,535,39
7501,1,0.452358300000924,1,3,1,536,39
7501,1,0.414988000000449,2,1,2,537,39
7501,1,0.437358299999687,1,3,1,538,39
7501,1,0.273940899998706,2,2,2,539,39
7501,1,0.437327800000276,2,1,2,540,39
7501,1,0.498072499998671,2,2,2,541,39
7501,1,0.387973099999726,1,3,1,542,39
7501,1,0.386378100000002,1,3,1,543,39
7501,1,0.457330199998978,2,1,2,544,39
7501,1,0.47702500000014,2,1,2,545,39
7501,1,0.504569199998514,2,2,2,546,39
7501,1,0.706614900000204,2,1,2,547,78
7501,0,0.72465320000083,1,2,2,548,78
7501,1,0.613940799999909,3,3,3,549,78
7501,0,0.642851499998869,1,4,3,550,78
7501,1,0.695682300000044,1,5,1,551,78
7501,0,0.818656700001156,2,6,1,552,78
7501,0,1.16005509999923,1,4,3,553,78
7501,1,0.72794100000101,1,6,1,554,78
7501,0,1.0172722999996,3,2,2,555,78
7501,1,0.430337100000543,2,1,2,556,78
7501,0,0.810953499998504,3,5,1,557,78
7501,0,0.713288400000238,1,4,3,558,78
7501,0,0.651013400000011,1,3,3,559,78
7501,1,0.559306900000593,2,1,2,560,78
7501,1,0.735298400000829,1,6,1,561,78
7501,1,0.487903699999151,1,6,1,562,78
7501,0,0.626428699999451,3,2,2,563,78
7501,0,0.543906300001254,1,3,3,564,78
7501,1,0.55268629999955,2,1,2,565,78
7501,1,0.672716999999466,2,2,2,566,78
7501,0,0.531965300000593,2,3,3,567,78
7501,0,0.796041999999943,1,4,3,568,78
7501,1,0.530943199999456,1,5,1,569,78
7501,0,0.619854500000656,2,6,1,570,78
7501,1,0.713158099999418,2,2,2,571,78
7501,1,0.651076800000737,1,5,1,572,78
7501,1,0.615160600000308,2,1,2,573,78
7501,1,0.644398599999477,3,3,3,574,78
7501,1,0.529049499999019,1,6,1,575,78
7501,1,0.506370299999617,1,5,1,576,78
7501,1,0.604591899998923,3,4,3,577,78
7501,1,0.418698199999199,3,4,3,578,78
7501,1,0.559826500000781,2,1,2,579,78
7501,0,0.783685899999909,2,3,3,580,78
7501,1,0.638660800001162,2,2,2,581,78
7501,1,0.41093710000132,3,3,3,582,78
7501,1,0.433341800000562,1,6,1,583,78
7501,1,0.429719499999919,1,6,1,584,78
7501,1,0.523203000000649,1,5,1,585,78
7501,1,0.556661999999051,2,1,2,586,78
7501,1,0.588247300000148,1,5,1,587,78
7501,1,0.571319799999401,3,4,3,588,78
7501,1,0.490708799999993,2,1,2,589,78
7501,1,0.437311199999385,2,2,2,590,78
7501,1,0.570011499999964,1,5,1,591,78
7501,1,0.54500950000147,2,2,2,592,78
7501,0,0.754073699999935,1,3,3,593,78
7501,1,0.52998529999968,1,6,1,594,78
7501,0,0.434704399998736,2,4,3,595,78
7501,1,0.599243599999681,3,3,3,596,78
7501,1,0.50897889999942,2,2,2,597,78
7501,1,1.17547589999958,1,6,1,598,78
7501,1,0.526674099999582,1,5,1,599,78
7501,1,0.543917400000282,2,1,2,600,78
7501,1,0.632592300000397,3,4,3,601,78
7501,1,0.741419699999824,3,4,3,602,78
7501,1,0.6456292999992,1,6,1,603,78
7501,1,0.698566100001699,3,3,3,604,78
7501,1,0.452231799999936,3,3,3,605,78
7501,1,0.656321399999797,2,2,2,606,78
7501,1,0.508604900000137,2,1,2,607,78
7501,1,0.934732799998528,2,2,2,608,78
7501,1,0.566945000000487,1,6,1,609,78
7501,1,0.678733300001113,1,5,1,610,78
7501,1,0.506107300001531,2,1,2,611,78
7501,1,0.923612299999149,3,4,3,612,78
7501,1,0.524985699999888,1,5,1,613,78
7501,1,0.622310700000526,3,4,3,614,78
7501,1,0.475798000001305,2,1,2,615,78
7501,1,0.719276799998624,3,3,3,616,78
7501,1,0.576337599999533,1,6,1,617,78
7501,1,0.592031899999711,2,2,2,618,78
7501,1,0.486740700000155,2,2,2,619,78
7501,1,0.481342199998835,2,1,2,620,78
7501,0,0.467977599999358,2,4,3,621,78
7501,1,0.575258700000632,1,5,1,622,78
7501,1,0.574605599998904,1,6,1,623,78
7501,1,0.638031599999522,3,4,3,624,78
7501,0,0.570469599999342,2,1,3,625,39
7501,0,0.449932400000762,3,2,2,626,39
7501,0,0.237865099999908,2,3,3,627,39
7501,1,0.378652900000816,3,3,3,628,39
7501,0,0.562045599999692,1,1,3,629,39
7501,0,0.378040399999009,1,3,3,630,39
7501,0,0.625303400000121,1,2,2,631,39
7501,1,0.614590900000621,3,1,3,632,39
7501,0,0.500149900000906,3,2,2,633,39
7501,1,0.613925699999527,3,1,3,634,39
7501,1,0.339378099999522,2,2,2,635,39
7501,1,0.611656999999468,3,3,3,636,39
7501,1,0.377912400001151,3,3,3,637,39
7501,1,0.393303700000615,2,2,2,638,39
7501,1,0.352055800000016,3,1,3,639,39
7501,1,0.375966800000242,2,2,2,640,39
7501,1,0.35119240000131,3,3,3,641,39
7501,1,0.599384299999656,3,1,3,642,39
7501,1,0.397232200000872,3,1,3,643,39
7501,1,0.459436600000117,2,2,2,644,39
7501,1,0.382930499999929,3,3,3,645,39
7501,1,0.565903899998375,2,2,2,646,39
7501,1,0.405344599999808,3,3,3,647,39
7501,1,0.347318500000256,3,1,3,648,39
7501,1,0.346988900000724,3,1,3,649,39
7501,1,0.35541430000012,3,3,3,650,39
7501,1,0.363340300000345,2,2,2,651,39
7501,1,0.683299700000134,2,2,2,652,39
7501,1,0.461383100000603,3,3,3,653,39
7501,1,0.449880599999233,3,1,3,654,39
7501,1,0.421979900000224,3,3,3,655,39
7501,1,0.571303900000203,2,2,2,656,39
7501,1,0.578635199999553,3,1,3,657,39
7501,1,0.585924200000591,2,2,2,658,39
7501,1,0.464583400000265,3,3,3,659,39
7501,1,0.403664899999058,3,3,3,660,39
7501,1,0.489939000000959,3,1,3,661,39
7501,1,0.412534600000072,3,1,3,662,39
7501,1,0.434732600000643,2,2,2,663,39
7501,0,0.522605799998928,2,1,3,664,78
7501,1,0.53201910000098,3,2,3,665,78
7501,1,0.460684600000604,1,3,1,666,78
7501,0,0.592345600000044,2,4,1,667,78
7501,0,0.679328099999111,3,5,2,668,78
7501,0,0.562715500000195,1,6,2,669,78
7501,0,0.818588599999202,3,4,1,670,78
7501,0,0.527604200000496,1,6,2,671,78
7501,1,0.529437999999573,3,2,3,672,78
7501,0,0.730368500000623,2,1,3,673,78
7501,1,0.395221400000082,2,5,2,674,78
7501,0,0.457696199999191,2,4,1,675,78
7501,1,0.493644999998651,1,3,1,676,78
7501,1,0.832656800001132,3,1,3,677,78
7501,0,0.676939200000561,1,6,2,678,78
7501,1,0.400704300000143,2,6,2,679,78
7501,1,0.534692500001256,3,2,3,680,78
7501,1,0.519186600000467,1,3,1,681,78
7501,0,0.656703299999208,1,1,3,682,78
7501,1,0.588356799999019,3,2,3,683,78
7501,1,0.595358399999895,1,3,1,684,78
7501,1,0.370036800000889,1,4,1,685,78
7501,1,0.593343699998513,2,5,2,686,78
7501,1,0.631873900001665,2,6,2,687,78
7501,1,0.492339999998876,3,2,3,688,78
7501,1,0.591155400001298,2,5,2,689,78
7501,1,0.877599800000098,3,1,3,690,78
7501,1,0.497381700000915,1,3,1,691,78
7501,1,0.626934100000653,2,6,2,692,78
7501,1,0.640649499999199,2,5,2,693,78
7501,1,0.997283299999253,1,4,1,694,78
7501,1,0.443391100001463,1,4,1,695,78
7501,1,0.535657299999002,3,1,3,696,78
7501,1,0.608630200000334,1,3,1,697,78
7501,1,0.478632399999697,3,2,3,698,78
7501,1,0.60962980000113,1,3,1,699,78
7501,1,0.647959600000831,2,6,2,700,78
7501,1,0.395893699998851,2,6,2,701,78
7501,1,0.890565199999401,2,5,2,702,78
7501,1,0.612989099998231,3,1,3,703,78
7501,1,0.715311900001325,2,5,2,704,78
7501,1,0.604384500000378,1,4,1,705,78
7501,1,0.71475460000147,3,1,3,706,78
7501,1,0.523863899999924,3,2,3,707,78
7501,1,0.533405300000595,2,5,2,708,78
7501,1,0.566034600000421,3,2,3,709,78
7501,1,0.533341099999234,1,3,1,710,78
7501,1,0.541667200001029,2,6,2,711,78
7501,1,0.558285700000852,1,4,1,712,78
7501,1,0.614358400000128,1,3,1,713,78
7501,1,0.523588199999722,3,2,3,714,78
7501,1,0.525329899999633,2,6,2,715,78
7501,1,0.558590000000549,2,5,2,716,78
7501,1,0.526563400000668,3,1,3,717,78
7501,1,0.607709400001113,1,4,1,718,78
7501,1,0.413547600001039,1,4,1,719,78
7501,1,0.563017099999342,2,6,2,720,78
7501,1,0.555366200000208,1,3,1,721,78
7501,1,0.459317299999384,1,3,1,722,78
7501,1,0.47138029999951,3,2,3,723,78
7501,1,0.514623999999458,3,1,3,724,78
7501,1,0.4917645000005,3,2,3,725,78
7501,1,0.574641799999881,2,6,2,726,78
7501,1,0.493942400000378,2,5,2,727,78
7501,1,0.536554599999363,3,1,3,728,78
7501,1,0.497245900000053,1,4,1,729,78
7501,1,0.483285400001478,2,5,2,730,78
7501,0,0.461648599999535,2,4,1,731,78
7501,1,0.593713600001138,3,1,3,732,78
7501,1,0.568706500000189,1,3,1,733,78
7501,1,0.504047200000059,2,6,2,734,78
7501,1,0.481926500000554,3,2,3,735,78
7501,1,0.412292999999408,3,2,3,736,78
7501,1,0.498307300000306,3,1,3,737,78
7501,1,0.548310600001059,1,4,1,738,78
7501,1,0.516622199998892,2,5,2,739,78
7501,1,0.429719799998566,2,6,2,740,78
7501,1,0.563332399999126,1,4,1,741,78
7501,1,0.431936200000564,2,1,2,742,39
7501,0,0.460667400000602,3,2,1,743,39
7501,1,0.672660799998994,1,3,1,744,39
7501,0,0.387677200000326,2,3,1,745,39
7501,1,0.386819499999547,2,1,2,746,39
7501,1,0.416981399999713,1,3,1,747,39
7501,0,0.558679499999926,2,2,1,748,39
7501,1,0.526667499998439,2,1,2,749,39
7501,1,0.591706399998657,1,2,1,750,39
7501,1,0.454678899999635,2,1,2,751,39
7501,1,0.322609900000316,1,2,1,752,39
7501,1,0.378858300000502,1,3,1,753,39
7501,1,0.315029800000048,1,3,1,754,39
7501,1,0.340248500000598,1,2,1,755,39
7501,1,0.453400999998848,2,1,2,756,39
7501,1,0.289397600001394,1,2,1,757,39
7501,1,0.467906399999265,1,3,1,758,39
7501,0,0.326903900000616,1,1,2,759,39
7501,1,0.432664399999339,2,1,2,760,39
7501,1,0.34896469999876,1,2,1,761,39
7501,1,0.493311899999753,1,3,1,762,39
7501,1,0.399978800000099,1,2,1,763,39
7501,1,0.397947699999349,1,3,1,764,39
7501,1,0.476064700000279,2,1,2,765,39
7501,1,0.447230399999171,2,1,2,766,39
7501,1,0.395452299999306,1,3,1,767,39
7501,1,0.48992410000028,1,2,1,768,39
7501,1,0.396414299999378,1,2,1,769,39
7501,1,0.371205600000394,1,3,1,770,39
7501,1,0.386162700000568,2,1,2,771,39
7501,1,0.3453671999996,1,3,1,772,39
7501,1,0.354062500000509,1,2,1,773,39
7501,1,0.449919399999999,2,1,2,774,39
7501,1,0.373979199999667,1,2,1,775,39
7501,1,0.540917599999375,1,3,1,776,39
7501,1,0.485653199999433,1,3,1,777,39
7501,1,0.42436429999907,2,1,2,778,39
7501,0,0.34971189999851,1,1,2,779,39
7501,1,0.35008260000177,1,2,1,780,39
7502,0,0.442090899683535,2,1,1,1,39
7502,1,0.958915499970317,2,2,2,2,39
7502,0,0.742384599987417,1,3,2,3,39
7502,0,1.06238940032199,1,3,2,4,39
7502,1,0.697781099937856,2,2,2,5,39
7502,0,0.843187900260091,2,1,1,6,39
7502,1,0.710952199995518,2,2,2,7,39
7502,0,0.280472000129521,3,3,2,8,39
7502,0,0.770948700141162,3,1,1,9,39
7502,1,0.55376150039956,1,1,1,10,39
7502,1,0.504980300087482,2,2,2,11,39
7502,0,0.930757400114089,3,3,2,12,39
7502,-1,-1,-1,3,2,13,39
7502,0,0.93195639969781,2,1,1,14,39
7502,0,0.668163400143385,3,3,2,15,39
7502,1,0.638948100153357,2,2,2,16,39
7502,1,0.499092099722475,1,1,1,17,39
7502,1,0.804468799848109,2,2,2,18,39
7502,1,0.505996499676257,2,2,2,19,39
7502,1,0.787071499973536,2,3,2,20,39
7502,0,0.409024399705231,2,1,1,21,39
7502,1,0.382977500092238,2,2,2,22,39
7502,1,0.325223700143397,2,3,2,23,39
7502,1,0.78183520026505,2,3,2,24,39
7502,1,0.476312799844891,1,1,1,25,39
7502,1,0.655156000051647,1,1,1,26,39
7502,1,0.522368699777871,2,2,2,27,39
7502,1,0.587186700198799,1,1,1,28,39
7502,1,0.745246200356632,2,3,2,29,39
7502,1,0.497391300275922,2,2,2,30,39
7502,1,0.626927299890667,2,3,2,31,39
7502,1,0.632139900233597,1,1,1,32,39
7502,1,0.500252099707723,2,2,2,33,39
7502,1,0.41331799980253,2,2,2,34,39
7502,1,0.490929499734193,2,3,2,35,39
7502,1,0.557388300076127,2,2,2,36,39
7502,1,0.628843000158668,1,1,1,37,39
7502,1,0.433793399948627,1,1,1,38,39
7502,1,0.445923200342804,2,3,2,39,39
7502,0,0.75772099988535,2,1,1,40,78
7502,0,0.533760000020266,3,2,1,41,78
7502,1,0.98192200018093,2,3,2,42,78
7502,1,1.13946359977126,2,4,2,43,78
7502,0,0.747724200133234,2,5,3,44,78
7502,0,0.651331400033087,1,6,3,45,78
7502,1,0.894817999564111,2,4,2,46,78
7502,0,0.592842999845743,3,1,1,47,78
7502,1,0.758656799793243,2,3,2,48,78
7502,0,0.670379200018942,1,5,3,49,78
7502,1,0.88916529994458,1,2,1,50,78
7502,0,1.05928230006248,2,5,3,51,78
7502,1,0.766675500199199,2,3,2,52,78
7502,1,0.869329200126231,3,6,3,53,78
7502,1,0.46405559964478,3,6,3,54,78
7502,1,0.531110299751163,1,2,1,55,78
7502,1,0.458754600025713,2,4,2,56,78
7502,0,1.04666259977967,2,1,1,57,78
7502,-1,-1,-1,1,1,58,78
7502,1,0.691588399931788,1,2,1,59,78
7502,1,1.2060590996407,2,3,2,60,78
7502,1,0.40324530005455,2,4,2,61,78
7502,0,1.11168550001457,2,5,3,62,78
7502,1,0.641891499981284,3,6,3,63,78
7502,1,0.702308000065386,2,3,2,64,78
7502,0,0.847675299737602,2,1,1,65,78
7502,1,1.0911972001195,3,6,3,66,78
7502,1,0.604920099955052,2,4,2,67,78
7502,1,0.586561100091785,1,2,1,68,78
7502,1,0.464700699783862,1,2,1,69,78
7502,-1,-1,-1,5,3,70,78
7502,1,0.660849700216204,3,6,3,71,78
7502,-1,-1,-1,5,3,72,78
7502,1,0.537599299568683,2,4,2,73,78
7502,1,0.689667499624193,2,3,2,74,78
7502,-1,-1,-1,1,1,75,78
7502,1,0.548707500100136,2,4,2,76,78
7502,-1,-1,-1,1,1,77,78
7502,1,0.517484600190073,1,2,1,78,78
7502,1,0.486556799616665,2,3,2,79,78
7502,-1,-1,-1,5,3,80,78
7502,1,0.521680000238121,3,6,3,81,78
7502,1,0.482504999730736,3,6,3,82,78
7502,1,0.756772299762815,2,3,2,83,78
7502,0,0.404351599980146,2,1,1,84,78
7502,1,0.434031600132585,2,4,2,85,78
7502,1,0.574179999995977,1,2,1,86,78
7502,-1,-1,-1,5,3,87,78
7502,-1,-1,-1,5,3,88,78
7502,1,0.487134200055152,2,4,2,89,78
7502,-1,-1,-1,1,1,90,78
7502,1,0.522915299981833,1,2,1,91,78
7502,-1,-1,-1,1,1,92,78
7502,1,0.484960000030696,3,6,3,93,78
7502,1,0.655072000343353,2,3,2,94,78
7502,-1,-1,-1,5,3,95,78
7502,1,0.531398199964315,3,6,3,96,78
7502,1,0.4758425001055,1,2,1,97,78
7502,1,0.566807600203902,2,3,2,98,78
7502,1,0.34931099973619,2,4,2,99,78
7502,1,0.548895300365984,1,2,1,100,78
7502,1,0.452409799676389,3,6,3,101,78
7502,1,0.455800000112504,3,6,3,102,78
7502,-1,-1,-1,1,1,103,78
7502,-1,-1,-1,5,3,104,78
7502,-1,-1,-1,1,1,105,78
7502,1,0.559351000003517,2,3,2,106,78
7502,1,0.518734599929303,2,4,2,107,78
7502,-1,-1,-1,5,3,108,78
7502,1,0.520618400070816,2,4,2,109,78
7502,1,0.48977189976722,1,2,1,110,78
7502,1,0.523914200253785,2,3,2,111,78
7502,1,0.412415199913085,2,3,2,112,78
7502,1,0.345991099718958,3,6,3,113,78
7502,-1,-1,-1,1,1,114,78
7502,-1,-1,-1,5,3,115,78
7502,1,0.484984800219536,1,2,1,116,78
7502,0,1.24720179988071,3,1,1,117,78
7502,0,1.16973230009899,2,1,1,118,39
7502,0,0.809306500013918,2,2,3,119,39
7502,0,0.438915600068867,2,3,3,120,39
7502,1,0.386803699657321,3,3,3,121,39
7502,1,0.513391300104558,3,2,3,122,39
7502,0,0.458931699860841,3,1,1,123,39
7502,0,0.510127700399607,1,2,3,124,39
7502,1,1.25592220015824,3,3,3,125,39
7502,1,0.611115499865264,1,1,1,126,39
7502,1,0.488719100132585,1,1,1,127,39
7502,1,0.59486690023914,3,2,3,128,39
7502,0,0.528755399864167,1,3,3,129,39
7502,1,0.441866999957711,3,3,3,130,39
7502,0,0.41403179988265,3,1,1,131,39
7502,1,0.587045399937779,3,3,3,132,39
7502,1,0.52073509991169,3,2,3,133,39
7502,1,0.38610260002315,1,1,1,134,39
7502,1,0.54387790011242,3,2,3,135,39
7502,1,0.536403500009328,3,2,3,136,39
7502,1,0.424558399710804,3,3,3,137,39
7502,1,0.645575299859047,1,1,1,138,39
7502,1,0.449568999931216,3,2,3,139,39
7502,0,0.49308199994266,1,3,3,140,39
7502,1,0.415369799826294,3,3,3,141,39
7502,1,0.699874699581414,1,1,1,142,39
7502,1,0.629636300262064,1,1,1,143,39
7502,1,0.538411600049585,3,2,3,144,39
7502,1,0.81859050039202,1,1,1,145,39
7502,1,0.479347299784422,3,3,3,146,39
7502,1,0.602153500076383,3,2,3,147,39
7502,1,0.431731400080025,3,3,3,148,39
7502,1,0.611580099910498,1,1,1,149,39
7502,1,0.585523799993098,3,2,3,150,39
7502,1,0.487576300278306,3,2,3,151,39
7502,1,0.817346299998462,3,3,3,152,39
7502,1,0.486132900230587,3,2,3,153,39
7502,1,0.632797500118613,1,1,1,154,39
7502,1,0.588933899998665,1,1,1,155,39
7502,1,0.490686300210655,3,3,3,156,39
7502,1,0.338530799839646,2,1,2,157,39
7502,0,0.634518500417471,3,2,2,158,39
7502,0,1.23891190020368,2,3,1,159,39
7502,0,1.02708020014688,3,3,1,160,39
7502,0,0.511868999805301,3,2,2,161,39
7502,1,0.449017799925059,2,1,2,162,39
7502,1,0.436931599862874,2,2,2,163,39
7502,1,0.480744699947536,1,3,1,164,39
7502,1,0.37099580001086,2,1,2,165,39
7502,1,0.378279900178313,2,1,2,166,39
7502,1,0.321122399996966,2,2,2,167,39
7502,1,0.321915300097317,1,3,1,168,39
7502,1,0.386587799992412,1,3,1,169,39
7502,1,0.401248199865222,2,1,2,170,39
7502,1,0.414654799737036,1,3,1,171,39
7502,0,0.595410600304604,3,2,2,172,39
7502,1,0.417838599998504,2,1,2,173,39
7502,1,0.3666499000974,2,2,2,174,39
7502,1,0.621420999988914,2,2,2,175,39
7502,1,0.498284500092268,1,3,1,176,39
7502,1,0.475728699937463,2,1,2,177,39
7502,1,0.38246739981696,2,2,2,178,39
7502,1,0.501029800157994,1,3,1,179,39
7502,1,0.398101600352675,1,3,1,180,39
7502,1,0.395882800221443,2,1,2,181,39
7502,1,0.433832800015807,2,1,2,182,39
7502,1,0.294370300136507,2,2,2,183,39
7502,1,0.416288999840617,2,1,2,184,39
7502,1,0.445515400264412,1,3,1,185,39
7502,1,0.345654000062495,2,2,2,186,39
7502,1,0.425949600059539,1,3,1,187,39
7502,1,0.470742099918425,2,1,2,188,39
7502,1,0.353338300250471,2,2,2,189,39
7502,1,0.481120300013572,2,2,2,190,39
7502,1,0.499433200340718,1,3,1,191,39
7502,1,0.525000299792737,2,2,2,192,39
7502,1,0.501760899554938,2,1,2,193,39
7502,1,0.407298599835485,2,1,2,194,39
7502,1,0.428761499933898,1,3,1,195,39
7502,1,0.41443770006299,2,1,2,196,78
7502,1,0.859551900066435,2,2,2,197,78
7502,0,0.615050899796188,2,3,3,198,78
7502,0,0.827793400269002,2,4,3,199,78
7502,0,0.30420650029555,2,5,1,200,78
7502,0,0.274074499960989,2,6,1,201,78
7502,0,0.725170300342143,2,4,3,202,78
7502,1,0.58193639991805,2,1,2,203,78
7502,0,0.587725900113583,2,3,3,204,78
7502,0,1.23375379992649,3,5,1,205,78
7502,0,0.550113600213081,3,2,2,206,78
7502,1,1.48575069988146,1,5,1,207,78
7502,0,0.871488699689507,1,3,3,208,78
7502,-1,-1,-1,6,1,209,78
7502,0,0.47541239997372,3,6,1,210,78
7502,1,0.854262299835682,2,2,2,211,78
7502,1,1.27360159996897,3,4,3,212,78
7502,1,0.651951600331813,2,1,2,213,78
7502,1,0.623675200156868,2,1,2,214,78
7502,0,1.02020399970934,3,2,2,215,78
7502,-1,-1,-1,3,3,216,78
7502,1,0.922374700196087,3,4,3,217,78
7502,0,0.811259100213647,2,5,1,218,78
7502,1,0.84856710024178,1,6,1,219,78
7502,0,0.708055000286549,1,3,3,220,78
7502,1,1.10112000023946,2,1,2,221,78
7502,1,0.558696100022644,1,6,1,222,78
7502,1,0.997955699916929,3,4,3,223,78
7502,0,1.21172109991312,3,2,2,224,78
7502,0,0.57696650037542,1,2,2,225,78
7502,-1,-1,-1,5,1,226,78
7502,1,0.552900800015777,1,6,1,227,78
7502,0,0.960072400048375,3,5,1,228,78
7502,1,0.75980280013755,3,4,3,229,78
7502,-1,-1,-1,3,3,230,78
7502,1,0.464134200010449,2,1,2,231,78
7502,1,1.04300540033728,3,4,3,232,78
7502,1,0.535335300024599,2,1,2,233,78
7502,1,0.55908380029723,2,2,2,234,78
7502,-1,-1,-1,3,3,235,78
7502,1,0.408187699969858,1,5,1,236,78
7502,1,0.501862099859864,1,6,1,237,78
7502,1,0.455011699814349,1,6,1,238,78
7502,-1,-1,-1,3,3,239,78
7502,1,0.4519890001975,2,1,2,240,78
7502,1,0.959266699850559,3,4,3,241,78
7502,1,0.695003400091082,2,2,2,242,78
7502,-1,-1,-1,5,1,243,78
7502,1,0.402261399663985,1,5,1,244,78
7502,1,0.831885499879718,3,4,3,245,78
7502,1,0.483572300057858,2,1,2,246,78
7502,1,0.57397020002827,2,2,2,247,78
7502,1,0.556905800011009,2,1,2,248,78
7502,1,0.51631429977715,1,6,1,249,78
7502,-1,-1,-1,3,3,250,78
7502,1,0.646621299907565,1,5,1,251,78
7502,1,0.442600000184029,1,6,1,252,78
7502,1,0.598427999764681,2,2,2,253,78
7502,-1,-1,-1,3,3,254,78
7502,1,0.78920410014689,3,4,3,255,78
7502,1,0.531668700277805,2,2,2,256,78
7502,1,0.499466899782419,1,6,1,257,78
7502,1,0.405254200100899,1,6,1,258,78
7502,1,0.506813700310886,2,1,2,259,78
7502,1,0.980287999846041,1,5,1,260,78
7502,1,0.514699199702591,2,1,2,261,78
7502,-1,-1,-1,3,3,262,78
7502,1,0.90904049994424,3,4,3,263,78
7502,1,0.574229499790817,1,5,1,264,78
7502,0,0.541255000047386,1,4,3,265,78
7502,1,0.525115699972957,2,2,2,266,78
7502,-1,-1,-1,3,3,267,78
7502,-1,-1,-1,3,3,268,78
7502,1,0.472345799673349,1,6,1,269,78
7502,1,0.475306300446391,2,1,2,270,78
7502,1,0.590332000050694,1,5,1,271,78
7502,1,0.508441899903119,2,2,2,272,78
7502,1,0.494132300373167,2,1,2,273,78
7502,0,0.608678900171071,2,1,3,274,39
7502,1,0.550180400256068,2,2,2,275,39
7502,0,0.461427900008857,2,3,3,276,39
7502,1,0.905322100035846,3,3,3,277,39
7502,1,0.650640099775046,2,2,2,278,39
7502,0,0.702039999887347,1,1,3,279,39
7502,1,0.61545620020479,2,2,2,280,39
7502,1,0.7803047997877,3,3,3,281,39
7502,1,0.451140099670738,3,1,3,282,39
7502,1,0.406874499749392,3,1,3,283,39
7502,1,0.588240600191057,2,2,2,284,39
7502,1,0.402464699931443,3,3,3,285,39
7502,1,0.439916600007564,3,3,3,286,39
7502,1,0.388104400131851,3,1,3,287,39
7502,1,0.666080399882048,3,3,3,288,39
7502,1,0.445207699667662,2,2,2,289,39
7502,1,0.545026100240648,3,1,3,290,39
7502,1,0.601125699933618,2,2,2,291,39
7502,1,0.438970100134611,2,2,2,292,39
7502,1,0.45083440002054,3,3,3,293,39
7502,0,0.566329200286418,2,1,3,294,39
7502,1,0.509623799938709,2,2,2,295,39
7502,1,0.48672359995544,3,3,3,296,39
7502,1,0.392957599833608,3,3,3,297,39
7502,0,0.503486500121653,2,1,3,298,39
7502,1,0.424952300265431,3,1,3,299,39
7502,1,0.501579700037837,2,2,2,300,39
7502,0,0.511018599849194,2,1,3,301,39
7502,1,0.488631499931216,3,3,3,302,39
7502,1,0.490827200002968,2,2,2,303,39
7502,1,0.404926199931651,3,3,3,304,39
7502,1,0.354534199927002,3,1,3,305,39
7502,1,0.41030679969117,2,2,2,306,39
7502,1,0.471920399926603,2,2,2,307,39
7502,1,0.394739399664104,3,3,3,308,39
7502,1,0.497014499735087,2,2,2,309,39
7502,1,0.53895920002833,3,1,3,310,39
7502,1,0.467119600158185,3,1,3,311,39
7502,1,0.581937099806964,3,3,3,312,39
7502,0,0.34208230022341,2,1,3,313,78
7502,0,0.302657099906355,2,2,3,314,78
7502,0,0.23215900035575,2,3,1,315,78
7502,0,0.260355900041759,2,4,1,316,78
7502,1,0.28797629987821,2,5,2,317,78
7502,1,0.506283700000495,2,6,2,318,78
7502,0,1.01172460010275,3,4,1,319,78
7502,1,0.609123200178146,3,1,3,320,78
7502,0,0.526545700151473,3,3,1,321,78
7502,1,0.415112799964845,2,5,2,322,78
7502,1,0.59621059987694,3,2,3,323,78
7502,1,0.618582699913532,2,5,2,324,78
7502,0,0.423129800241441,3,3,1,325,78
7502,1,0.676177199929953,2,6,2,326,78
7502,1,0.446971700061113,2,6,2,327,78
7502,0,0.747245599981397,1,2,3,328,78
7502,1,0.594577999785542,1,4,1,329,78
7502,-1,-1,-1,1,3,330,78
7502,1,0.649975100066513,3,1,3,331,78
7502,1,0.453140900004655,3,2,3,332,78
7502,1,0.720951499883085,1,3,1,333,78
7502,1,0.649823199957609,1,4,1,334,78
7502,1,0.732890999875963,2,5,2,335,78
7502,1,0.413235699757934,2,6,2,336,78
7502,0,0.410889899823815,3,3,1,337,78
7502,1,0.544151599984616,3,1,3,338,78
7502,1,0.552685299888253,2,6,2,339,78
7502,1,0.51179870031774,1,4,1,340,78
7502,1,0.609668900258839,3,2,3,341,78
7502,1,0.454897599760443,3,2,3,342,78
7502,1,0.610694999806583,2,5,2,343,78
7502,1,0.504110199864954,2,6,2,344,78
7502,1,0.481712199747562,2,5,2,345,78
7502,1,0.555604900233448,1,4,1,346,78
7502,0,0.659331799950451,3,3,1,347,78
7502,1,0.798517200164497,3,1,3,348,78
7502,1,0.604227100033313,1,4,1,349,78
7502,1,0.681352300103754,3,1,3,350,78
7502,1,0.699554399587214,3,2,3,351,78
7502,1,0.549246999900788,1,3,1,352,78
7502,1,0.564792000222951,2,5,2,353,78
7502,1,0.51568270009011,2,6,2,354,78
7502,1,0.412012699991465,2,6,2,355,78
7502,1,0.721902899909765,1,3,1,356,78
7502,0,0.466434299945831,2,1,3,357,78
7502,1,0.581325400155038,1,4,1,358,78
7502,1,0.555813699960709,3,2,3,359,78
7502,1,0.467424300033599,2,5,2,360,78
7502,1,0.446198800113052,2,5,2,361,78
7502,1,0.54635680001229,1,4,1,362,78
7502,1,0.930238700006157,3,1,3,363,78
7502,1,0.355143600143492,3,2,3,364,78
7502,1,0.530463899951428,3,1,3,365,78
7502,1,0.466990699991584,2,6,2,366,78
7502,1,0.54187719989568,1,3,1,367,78
7502,1,0.47774999961257,2,5,2,368,78
7502,1,0.496868199668825,2,6,2,369,78
7502,1,0.522988900076598,3,2,3,370,78
7502,1,0.515841300133616,1,3,1,371,78
7502,1,0.500532300211489,1,4,1,372,78
7502,1,0.573770099785179,3,2,3,373,78
7502,1,0.477161500137299,2,6,2,374,78
7502,1,0.455921099986881,2,6,2,375,78
7502,1,0.627441800199449,3,1,3,376,78
7502,1,0.511920699849725,2,5,2,377,78
7502,1,0.457779299933463,3,1,3,378,78
7502,1,0.485059299971908,1,3,1,379,78
7502,1,0.623530099634081,1,4,1,380,78
7502,1,0.508314799983054,2,5,2,381,78
7502,1,0.525881700217724,1,4,1,382,78
7502,1,0.502802499569952,3,2,3,383,78
7502,1,0.64824299979955,1,3,1,384,78
7502,1,0.44357609981671,1,3,1,385,78
7502,1,0.559841599781066,2,6,2,386,78
7502,1,0.463066700380296,3,1,3,387,78
7502,1,0.554974399972707,2,5,2,388,78
7502,1,0.506074900273234,3,2,3,389,78
7502,1,0.475980899762362,3,1,3,390,78
7502,0,0.323853100184351,2,1,1,391,78
7502,0,0.29293749993667,2,2,1,392,78
7502,1,0.255276499781758,2,3,2,393,78
7502,1,0.306856600102037,2,4,2,394,78
7502,0,0.564033600036055,2,5,3,395,78
7502,0,0.347240600269288,2,6,3,396,78
7502,1,0.586855200119317,2,4,2,397,78
7502,0,0.648934099823236,3,1,1,398,78
7502,1,0.636348300147802,2,3,2,399,78
7502,1,0.600245899986476,3,5,3,400,78
7502,0,0.702031699940562,3,2,1,401,78
7502,1,0.479199300054461,3,5,3,402,78
7502,1,0.530355399940163,2,3,2,403,78
7502,0,0.715083899907768,1,6,3,404,78
7502,1,0.427991699893028,3,6,3,405,78
7502,1,0.848567800130695,1,2,1,406,78
7502,1,0.8438626001589,2,4,2,407,78
7502,1,0.864379999693483,1,1,1,408,78
7502,1,0.418998800218105,1,1,1,409,78
7502,0,0.46356049971655,3,2,1,410,78
7502,1,0.602803200017661,2,3,2,411,78
7502,0,0.783894599881023,3,4,2,412,78
7502,1,0.86235969979316,3,5,3,413,78
7502,1,0.361770800314844,3,6,3,414,78
7502,1,0.649310400243849,2,3,2,415,78
7502,1,0.70049270009622,1,1,1,416,78
7502,1,0.765918900258839,3,6,3,417,78
7502,0,0.533058500383049,1,4,2,418,78
7502,1,0.677191500086337,1,2,1,419,78
7502,1,0.61582769965753,1,2,1,420,78
7502,1,0.756800299976021,3,5,3,421,78
7502,0,0.556011400185525,1,6,3,422,78
7502,1,0.45972209982574,3,5,3,423,78
7502,0,0.430947900284082,3,4,2,424,78
7502,1,0.627604600042105,2,3,2,425,78
7502,1,0.616008299868554,1,1,1,426,78
7502,1,1.02873060014099,2,4,2,427,78
7502,1,0.75389809999615,1,1,1,428,78
7502,0,0.76093430025503,3,2,1,429,78
7502,1,0.792406199965626,2,3,2,430,78
7502,1,0.646486000157893,3,5,3,431,78
7502,1,0.394611499737948,3,6,3,432,78
7502,1,0.48122170008719,3,6,3,433,78
7502,1,0.562989099882543,2,3,2,434,78
7502,1,0.578826799988747,1,1,1,435,78
7502,1,0.409298600163311,2,4,2,436,78
7502,1,0.623225300107151,1,2,1,437,78
7502,1,0.531931499950588,3,5,3,438,78
7502,1,0.532199200242758,3,5,3,439,78
7502,1,0.644342300016433,2,4,2,440,78
7502,1,0.720108199864626,1,1,1,441,78
7502,1,0.457313100341707,1,2,1,442,78
7502,1,0.468830799683928,1,1,1,443,78
7502,1,0.527728100307286,3,6,3,444,78
7502,1,0.480159000027925,2,3,2,445,78
7502,1,0.579009999986738,3,5,3,446,78
7502,1,0.506160200107843,3,6,3,447,78
7502,1,0.587770099751651,1,2,1,448,78
7502,1,0.529831700026989,2,3,2,449,78
7502,1,0.546588900033385,2,4,2,450,78
7502,1,0.546555100008845,1,2,1,451,78
7502,1,0.506664300337434,3,6,3,452,78
7502,1,0.54852439975366,3,6,3,453,78
7502,1,0.587635200005025,1,1,1,454,78
7502,1,0.449835699982941,3,5,3,455,78
7502,1,0.533784900326282,1,1,1,456,78
7502,1,0.501865400001407,2,3,2,457,78
7502,1,0.591448900289834,2,4,2,458,78
7502,1,0.589579300023615,3,5,3,459,78
7502,1,0.635406999848783,2,4,2,460,78
7502,1,0.519907400012016,1,2,1,461,78
7502,1,0.464682400226593,2,3,2,462,78
7502,1,0.52356639970094,2,3,2,463,78
7502,1,0.460257600061595,3,6,3,464,78
7502,1,0.527585699688643,1,1,1,465,78
7502,1,0.480743299704045,3,5,3,466,78
7502,1,0.514746699947864,1,2,1,467,78
7502,1,0.595766300335526,1,1,1,468,78
7502,0,0.327309400308877,2,1,1,469,39
7502,0,0.552270600106567,2,2,3,470,39
7502,0,0.383796200156212,2,3,3,471,39
7502,1,0.365588699933141,3,3,3,472,39
7502,1,0.772461200132966,3,2,3,473,39
7502,0,0.467663700226694,3,1,1,474,39
7502,1,0.558376200031489,3,2,3,475,39
7502,1,0.381832099985331,3,3,3,476,39
7502,1,0.372198999859393,1,1,1,477,39
7502,1,0.491215799935162,1,1,1,478,39
7502,1,0.460944599937648,3,2,3,479,39
7502,1,0.480807899963111,3,3,3,480,39
7502,1,0.41110339993611,3,3,3,481,39
7502,1,0.328168099746108,1,1,1,482,39
7502,1,0.368903799913824,3,3,3,483,39
7502,1,0.464262399822474,3,2,3,484,39
7502,1,0.370855299755931,1,1,1,485,39
7502,1,0.642085600178689,3,2,3,486,39
7502,1,0.413895200006664,3,2,3,487,39
7502,1,0.443036899901927,3,3,3,488,39
7502,0,0.415297400206327,3,1,1,489,39
7502,1,0.51622649980709,3,2,3,490,39
7502,1,0.372667599935085,3,3,3,491,39
7502,1,0.459849500097334,3,3,3,492,39
7502,1,0.391552400309592,1,1,1,493,39
7502,1,0.429558699950576,1,1,1,494,39
7502,1,0.426489099860191,3,2,3,495,39
7502,1,0.47145379986614,1,1,1,496,39
7502,1,0.385763800237328,3,3,3,497,39
7502,1,0.592037700116634,3,2,3,498,39
7502,1,0.414673400111496,3,3,3,499,39
7502,1,0.411603399552405,1,1,1,500,39
7502,1,0.496984200086445,3,2,3,501,39
7502,1,0.442915699910372,3,2,3,502,39
7502,0,0.415475200396031,1,3,3,503,39
7502,1,0.444062100257725,3,2,3,504,39
7502,0,0.32820829981938,3,1,1,505,39
7502,1,0.545164899900556,1,1,1,506,39
7502,1,0.481285899877548,3,3,3,507,39
7502,1,0.408395899925381,2,1,2,508,39
7502,1,0.493835299741477,2,2,2,509,39
7502,0,0.863900799769908,2,3,1,510,39
7502,0,0.818799300119281,3,3,1,511,39
7502,1,0.511461199726909,2,2,2,512,39
7502,1,0.424954600166529,2,1,2,513,39
7502,1,1.34181839972734,2,2,2,514,39
7502,0,0.42962840013206,2,3,1,515,39
7502,1,0.370586300268769,2,1,2,516,39
7502,1,0.449535599909723,2,1,2,517,39
7502,1,0.349020499736071,2,2,2,518,39
7502,1,0.332532699685544,1,3,1,519,39
7502,1,0.484883799683303,1,3,1,520,39
7502,1,0.455077600199729,2,1,2,521,39
7502,0,0.338551899883896,2,3,1,522,39
7502,1,0.506784999743104,2,2,2,523,39
7502,1,0.580362199805677,2,1,2,524,39
7502,1,0.506745999678969,2,2,2,525,39
7502,1,0.372265600133687,2,2,2,526,39
7502,1,0.435607000254095,1,3,1,527,39
7502,1,0.359755999874324,2,1,2,528,39
7502,1,0.319224600214511,2,2,2,529,39
7502,1,0.336155300028622,1,3,1,530,39
7502,1,0.440591100137681,1,3,1,531,39
7502,1,0.436619400046766,2,1,2,532,39
7502,1,0.488826300017536,2,1,2,533,39
7502,1,0.387051799800247,2,2,2,534,39
7502,1,0.433216599747539,2,1,2,535,39
7502,1,0.565284299664199,1,3,1,536,39
7502,1,0.523965199943632,2,2,2,537,39
7502,1,0.621108399704099,1,3,1,538,39
7502,1,0.40986659983173,2,1,2,539,39
7502,1,0.311547300312668,2,2,2,540,39
7502,1,0.617022099904716,2,2,2,541,39
7502,1,0.35805970011279,1,3,1,542,39
7502,1,0.437464700080454,2,2,2,543,39
7502,1,0.449289000127465,2,1,2,544,39
7502,1,0.453182000201195,2,1,2,545,39
7502,1,0.376773700118065,1,3,1,546,39
7502,1,0.52969569992274,2,1,2,547,78
7502,1,0.483114399947226,2,2,2,548,78
7502,0,0.884974999818951,2,3,3,549,78
7502,0,0.478984499815851,2,4,3,550,78
7502,0,0.265878099948168,2,5,1,551,78
7502,0,0.605079799890518,2,6,1,552,78
7502,1,0.890289399772882,3,4,3,553,78
7502,1,0.684683700092137,2,1,2,554,78
7502,1,0.734942700248212,3,3,3,555,78
7502,0,0.862560200039297,3,5,1,556,78
7502,0,1.03400430036709,3,2,2,557,78
7502,-1,-1,-1,5,1,558,78
7502,1,0.735467900056392,3,3,3,559,78
7502,1,0.679252599831671,1,6,1,560,78
7502,1,0.410405599977821,1,6,1,561,78
7502,0,0.696081500034779,1,2,2,562,78
7502,0,0.994194900151342,2,4,3,563,78
7502,1,0.600173499900848,2,1,2,564,78
7502,1,0.509585999883711,2,1,2,565,78
7502,1,0.455089000053704,2,2,2,566,78
7502,1,0.570726200006902,3,3,3,567,78
7502,1,0.449436099734157,3,4,3,568,78
7502,1,0.389018500223756,1,5,1,569,78
7502,1,0.370924800168723,1,6,1,570,78
7502,1,0.665793200023472,3,3,3,571,78
7502,1,0.676505799870938,2,1,2,572,78
7502,1,0.631657999940217,1,6,1,573,78
7502,1,1.17951870011166,3,4,3,574,78
7502,1,0.858570899814367,2,2,2,575,78
7502,1,0.557622000109404,2,2,2,576,78
7502,1,0.749079999979585,1,5,1,577,78
7502,1,0.588812499772757,1,6,1,578,78
7502,1,0.546688799746335,1,5,1,579,78
7502,1,0.698899799957871,3,4,3,580,78
7502,1,0.604261399712414,3,3,3,581,78
7502,1,0.570126500446349,2,1,2,582,78
7502,1,0.632903099991381,3,4,3,583,78
7502,1,0.565074000041932,2,1,2,584,78
7502,1,0.683877599891275,2,2,2,585,78
7502,1,0.613572999835014,3,3,3,586,78
7502,1,0.403189199976623,1,5,1,587,78
7502,1,0.433115600142628,1,6,1,588,78
7502,1,0.477053500246257,1,6,1,589,78
7502,1,0.575790300033987,3,3,3,590,78
7502,1,0.566596100106835,2,1,2,591,78
7502,1,0.541712400037795,3,4,3,592,78
7502,1,0.533875700086355,2,2,2,593,78
7502,1,0.550161099992692,1,5,1,594,78
7502,1,0.68566960003227,1,5,1,595,78
7502,1,0.695271099917591,3,4,3,596,78
7502,1,0.753966799937189,2,1,2,597,78
7502,1,0.601453800220042,2,2,2,598,78
7502,1,0.662798599805683,2,1,2,599,78
7502,1,0.562129999976605,1,6,1,600,78
7502,1,0.649680799804628,3,3,3,601,78
7502,1,0.901339900214225,1,5,1,602,78
7502,1,0.590682699810714,1,6,1,603,78
7502,1,0.516620700247586,2,2,2,604,78
7502,1,0.573296200018376,3,3,3,605,78
7502,1,0.868477600160986,3,4,3,606,78
7502,1,0.598861599806696,2,2,2,607,78
7502,1,0.604600800201297,1,6,1,608,78
7502,1,0.506204099860042,1,6,1,609,78
7502,1,0.643727899994701,2,1,2,610,78
7502,1,0.552095900289714,1,5,1,611,78
7502,1,0.543039200361818,2,1,2,612,78
7502,1,0.551133799832314,3,3,3,613,78
7502,1,0.678982699755579,3,4,3,614,78
7502,1,0.489670699927956,1,5,1,615,78
7502,1,0.587930399924517,3,4,3,616,78
7502,1,0.530134299769998,2,2,2,617,78
7502,1,0.55457350006327,3,3,3,618,78
7502,1,0.498483099974692,3,3,3,619,78
7502,1,0.516000499948859,1,6,1,620,78
7502,1,0.589006499852985,2,1,2,621,78
7502,1,0.531070000026375,1,5,1,622,78
7502,1,0.571147500071675,2,2,2,623,78
7502,1,0.545919999945909,2,1,2,624,78
7502,0,0.804649900179356,2,1,3,625,39
7502,1,0.322513600345701,2,2,2,626,39
7502,0,0.339317500125617,2,3,3,627,39
7502,1,0.683408299926668,3,3,3,628,39
7502,1,0.685744700022042,2,2,2,629,39
7502,0,0.439990300219506,1,1,3,630,39
7502,0,0.516097899992019,3,2,2,631,39
7502,1,0.500875299796462,3,3,3,632,39
7502,0,0.454161399975419,1,1,3,633,39
7502,1,0.681653799954802,3,1,3,634,39
7502,1,0.548009099904448,2,2,2,635,39
7502,1,0.307508700061589,3,3,3,636,39
7502,1,0.429154899902642,3,3,3,637,39
7502,1,0.594027699902654,3,1,3,638,39
7502,1,0.432260000146925,3,3,3,639,39
7502,1,0.524408699944615,2,2,2,640,39
7502,1,0.460841400083154,3,1,3,641,39
7502,1,0.592811500187963,2,2,2,642,39
7502,1,0.574966800399125,2,2,2,643,39
7502,1,0.50948299979791,3,3,3,644,39
7502,1,0.582920300308615,3,1,3,645,39
7502,1,0.773386700078845,2,2,2,646,39
7502,1,0.403882599901408,3,3,3,647,39
7502,1,0.625746199861169,3,3,3,648,39
7502,1,0.486242999788374,3,1,3,649,39
7502,1,0.496468500234187,3,1,3,650,39
7502,1,0.395046100020409,2,2,2,651,39
7502,1,0.321154600009322,3,1,3,652,39
7502,1,0.449700300116092,3,3,3,653,39
7502,1,0.421564400196075,2,2,2,654,39
7502,1,0.258166400250047,3,3,3,655,39
7502,1,0.35004370007664,3,1,3,656,39
7502,1,0.38941580010578,2,2,2,657,39
7502,0,0.227842600084841,3,2,2,658,39
7502,1,0.536776799708605,3,3,3,659,39
7502,1,0.520960900001228,2,2,2,660,39
7502,1,0.545741099864244,3,1,3,661,39
7502,1,0.585946199949831,3,1,3,662,39
7502,1,0.392217699903995,3,3,3,663,39
7502,0,0.58824220020324,2,1,3,664,78
7502,0,0.290143399965018,2,2,3,665,78
7502,0,0.300521600060165,2,3,1,666,78
7502,0,0.254377599805593,2,4,1,667,78
7502,1,0.313624400179833,2,5,2,668,78
7502,1,0.330837399698794,2,6,2,669,78
7502,0,0.603016799781471,3,4,1,670,78
7502,1,0.696576200425625,3,1,3,671,78
7502,0,0.850763299968094,3,3,1,672,78
7502,0,0.806140099652112,3,5,2,673,78
7502,1,0.699154800269753,3,2,3,674,78
7502,0,0.812752000056207,1,5,2,675,78
7502,1,0.7143709002994,1,3,1,676,78
7502,1,0.875231700018048,2,6,2,677,78
7502,1,0.445640800055116,2,6,2,678,78
7502,0,0.961666599847376,2,2,3,679,78
7502,0,1.05748070031404,3,4,1,680,78
7502,0,0.652891500387341,2,1,3,681,78
7502,1,0.559972899965942,3,1,3,682,78
7502,1,0.543704399839044,3,2,3,683,78
7502,1,0.639989499934018,1,3,1,684,78
7502,1,0.412093299906701,1,4,1,685,78
7502,0,0.961561100091785,1,5,2,686,78
7502,1,0.617114600259811,2,6,2,687,78
7502,1,0.757891000248492,1,3,1,688,78
7502,1,0.797430299688131,3,1,3,689,78
7502,1,0.72282600030303,2,6,2,690,78
7502,1,0.747604999691248,1,4,1,691,78
7502,1,0.922944899648428,3,2,3,692,78
7502,1,0.491609900258482,3,2,3,693,78
7502,1,0.581844700034708,2,5,2,694,78
7502,0,0.555639199912548,1,6,2,695,78
7502,1,0.41140849981457,2,5,2,696,78
7502,1,0.7449886999093,1,4,1,697,78
7502,1,0.417256399989128,1,3,1,698,78
7502,1,0.470082499552518,3,1,3,699,78
7502,0,0.592561100143939,2,4,1,700,78
7502,1,0.598892299924046,3,1,3,701,78
7502,1,1.00452900025994,3,2,3,702,78
7502,1,0.617761900182813,1,3,1,703,78
7502,1,1.0466926000081,2,5,2,704,78
7502,1,0.43472020002082,2,6,2,705,78
7502,1,0.422668399754912,2,6,2,706,78
7502,1,0.59569099964574,1,3,1,707,78
7502,1,0.577580399811268,3,1,3,708,78
7502,0,0.59252250008285,2,4,1,709,78
7502,1,0.807010400108993,3,2,3,710,78
7502,1,0.748375299852341,2,5,2,711,78
7502,1,0.435625900048763,2,5,2,712,78
7502,0,0.399941399693489,2,4,1,713,78
7502,1,0.557619000319391,3,1,3,714,78
7502,1,1.02111550001428,3,2,3,715,78
7502,0,0.537758499849588,2,1,3,716,78
7502,1,0.665587500203401,2,6,2,717,78
7502,1,0.580767100211233,1,3,1,718,78
7502,0,0.698793300427496,1,5,2,719,78
7502,1,0.612334500066936,2,6,2,720,78
7502,1,0.60974089987576,3,2,3,721,78
7502,0,0.455188800115138,3,3,1,722,78
7502,1,0.818742899689823,1,4,1,723,78
7502,1,0.631668400019407,3,2,3,724,78
7502,1,0.579730699770153,2,6,2,725,78
7502,1,0.466389200184494,2,6,2,726,78
7502,1,0.573386800009757,3,1,3,727,78
7502,1,0.460357199888676,2,5,2,728,78
7502,1,0.375811799895018,3,1,3,729,78
7502,1,0.630666400305927,1,3,1,730,78
7502,1,0.578722100239247,1,4,1,731,78
7502,1,0.841570400167257,2,5,2,732,78
7502,1,0.637634399812669,1,4,1,733,78
7502,1,0.641871099825948,3,2,3,734,78
7502,0,0.509833700023592,3,3,1,735,78
7502,1,0.567491699941456,1,3,1,736,78
7502,1,0.518434800207615,2,6,2,737,78
7502,1,0.566794699989259,3,1,3,738,78
7502,1,0.797971700318158,2,5,2,739,78
7502,1,0.779346200171858,3,2,3,740,78
7502,1,0.689851899631321,3,1,3,741,78
7502,1,0.495239699725062,2,1,2,742,39
7502,0,1.48113989969715,3,2,1,743,39
7502,1,0.651577499695122,1,3,1,744,39
7502,1,0.543032799847424,1,3,1,745,39
7502,0,0.678644999861717,2,2,1,746,39
7502,1,0.609515300020576,2,1,2,747,39
7502,1,0.463268300052732,1,2,1,748,39
7502,1,0.386889399960637,1,3,1,749,39
7502,1,0.433034699875861,2,1,2,750,39
7502,1,0.437278899829835,2,1,2,751,39
7502,1,0.577537400182337,1,2,1,752,39
7502,1,0.424343999940902,1,3,1,753,39
7502,1,0.38925309991464,1,3,1,754,39
7502,0,0.411375899799168,1,1,2,755,39
7502,1,0.424923599697649,1,3,1,756,39
7502,1,0.413494000211358,1,2,1,757,39
7502,1,0.419455300085247,2,1,2,758,39
7502,1,0.664207900408655,1,2,1,759,39
7502,1,0.394992700312287,1,2,1,760,39
7502,1,0.34519480029121,1,3,1,761,39
7502,1,0.481168900150806,2,1,2,762,39
7502,0,0.48370479978621,2,2,1,763,39
7502,1,0.477923099882901,1,3,1,764,39
7502,1,0.432659999933094,1,3,1,765,39
7502,1,0.564870199654251,2,1,2,766,39
7502,1,0.459664499852806,2,1,2,767,39
7502,1,0.399407200049609,1,2,1,768,39
7502,0,0.428780700080097,1,1,2,769,39
7502,1,0.401424600277096,1,3,1,770,39
7502,1,0.36724240006879,1,2,1,771,39
7502,1,0.42205569986254,1,3,1,772,39
7502,1,0.419022100046277,2,1,2,773,39
7502,1,0.311972800176591,1,2,1,774,39
7502,1,0.385277200024575,1,2,1,775,39
7502,1,0.487606899812818,1,3,1,776,39
7502,1,0.48959010001272,1,2,1,777,39
7502,1,0.411801300011575,2,1,2,778,39
7502,1,0.521315600257367,2,1,2,779,39
7502,1,0.38642319990322,1,3,1,780,39
7503,1,0.501099799759686,1,1,1,1,39
7503,0,0.446969400160015,3,2,2,2,39
7503,1,0.906853000167757,2,3,2,3,39
7503,1,0.667843100149184,1,1,1,4,39
7503,0,0.414896400179714,1,3,2,5,39
7503,-1,-1,-1,2,2,6,39
7503,1,0.757022700272501,2,2,2,7,39
7503,1,0.716542799957097,2,3,2,8,39
7503,1,0.429220099933445,1,1,1,9,39
7503,1,0.506233099848032,1,1,1,10,39
7503,1,0.443672200199217,2,2,2,11,39
7503,1,0.439936300273985,2,3,2,12,39
7503,1,0.459713900461793,1,1,1,13,39
7503,1,0.319643400143832,2,3,2,14,39
7503,1,0.296487899962813,2,2,2,15,39
7503,1,0.346687300130725,2,2,2,16,39
7503,1,0.354691000189632,2,3,2,17,39
7503,1,0.41056999983266,1,1,1,18,39
7503,1,0.503857799805701,2,3,2,19,39
7503,1,0.425718300044537,2,2,2,20,39
7503,1,0.374477900099009,1,1,1,21,39
7503,1,0.461149699985981,1,1,1,22,39
7503,1,0.464870899915695,2,3,2,23,39
7503,1,0.323830999899656,2,2,2,24,39
7503,1,0.396412399597466,2,2,2,25,39
7503,1,0.386899299919605,2,3,2,26,39
7503,1,0.337033899966627,1,1,1,27,39
7503,1,0.553087699692696,2,3,2,28,39
7503,1,0.480913499835879,1,1,1,29,39
7503,1,0.37861860031262,2,2,2,30,39
7503,1,0.370013900101185,2,2,2,31,39
7503,1,0.368569599930197,2,3,2,32,39
7503,1,0.359764600172639,2,2,2,33,39
7503,0,0.207247099839151,2,1,1,34,39
7503,1,0.396911799907684,2,3,2,35,39
7503,1,0.370098799932748,1,1,1,36,39
7503,1,0.441323400009423,1,1,1,37,39
7503,1,0.44551429990679,2,2,2,38,39
7503,1,0.353649700060487,2,3,2,39,39
7503,1,0.770292699802667,1,1,1,40,78
7503,1,0.481530100107193,1,2,1,41,78
7503,0,0.403896099887788,1,3,2,42,78
7503,0,0.593445100355893,3,4,2,43,78
7503,0,0.599172599613667,1,5,3,44,78
7503,0,0.556750799994916,1,6,3,45,78
7503,1,1.19642230030149,1,2,1,46,78
7503,1,1.36210860032588,3,6,3,47,78
7503,1,0.761630399618298,3,5,3,48,78
7503,0,0.584888600278646,3,3,2,49,78
7503,1,0.527037999592721,1,1,1,50,78
7503,0,0.984135699924082,3,4,2,51,78
7503,1,0.781897400040179,2,4,2,52,78
7503,1,0.604309900198132,1,1,1,53,78
7503,1,0.977764599956572,3,5,3,54,78
7503,1,0.712358199991286,1,2,1,55,78
7503,1,0.801596300210804,3,6,3,56,78
7503,1,0.783264299854636,2,3,2,57,78
7503,1,0.485591500066221,1,1,1,58,78
7503,1,0.615661900024861,1,2,1,59,78
7503,1,1.04411339992657,2,3,2,60,78
7503,0,0.960391500033438,3,4,2,61,78
7503,0,1.05548160010949,2,5,3,62,78
7503,1,1.10730030015111,3,6,3,63,78
7503,1,0.516166899818927,1,1,1,64,78
7503,0,0.853281099814922,3,4,2,65,78
7503,1,0.616477699950337,1,2,1,66,78
7503,1,1.02129700034857,3,5,3,67,78
7503,1,1.49790819967166,2,3,2,68,78
7503,1,0.803077999968082,3,6,3,69,78
7503,1,1.06457500020042,3,5,3,70,78
7503,1,0.69939580000937,3,6,3,71,78
7503,1,0.461007999721915,1,1,1,72,78
7503,0,0.816488099750131,3,3,2,73,78
7503,0,1.01337829977274,3,4,2,74,78
7503,1,0.514298299793154,1,2,1,75,78
7503,1,0.523098099976778,1,2,1,76,78
7503,1,0.964105799794197,2,3,2,77,78
7503,1,0.890993800014257,3,6,3,78,78
7503,1,1.16507579991594,3,5,3,79,78
7503,1,0.531416099984199,3,5,3,80,78
7503,1,0.75591679988429,3,6,3,81,78
7503,1,0.770974199753255,1,1,1,82,78
7503,1,0.978091499768198,2,3,2,83,78
7503,1,0.616982200182974,2,4,2,84,78
7503,1,0.637507000006735,2,3,2,85,78
7503,1,0.706233900040388,1,1,1,86,78
7503,1,0.515121800359339,1,2,1,87,78
7503,1,0.851738299708813,1,2,1,88,78
7503,1,1.27946350025013,2,4,2,89,78
7503,1,0.594144199974835,3,5,3,90,78
7503,1,0.904149500187486,2,4,2,91,78
7503,-1,-1,-1,6,3,92,78
7503,1,0.586500700097531,1,1,1,93,78
7503,1,0.721084999851882,2,4,2,94,78
7503,1,0.369765600189567,2,3,2,95,78
7503,1,0.504527099896222,1,2,1,96,78
7503,1,0.746071300003678,3,5,3,97,78
7503,1,0.43397569982335,1,1,1,98,78
7503,1,0.782228699885309,1,2,1,99,78
7503,0,0.820498600136489,2,6,3,100,78
7503,1,0.721324699930847,2,3,2,101,78
7503,1,0.70602469984442,3,6,3,102,78
7503,1,0.587206399999559,2,4,2,103,78
7503,1,1.00185400014743,3,5,3,104,78
7503,1,0.382721900008619,3,5,3,105,78
7503,0,0.597237900365144,2,6,3,106,78
7503,1,0.514490600209683,1,1,1,107,78
7503,1,0.603539099916816,2,4,2,108,78
7503,1,0.529190799687058,1,1,1,109,78
7503,1,0.585589100141078,1,2,1,110,78
7503,1,0.543801199644804,2,3,2,111,78
7503,0,0.400308399926871,2,1,1,112,78
7503,1,1.06949720019475,3,5,3,113,78
7503,1,0.568180399946868,2,4,2,114,78
7503,1,0.439334600232542,2,3,2,115,78
7503,1,0.36343100015074,2,3,2,116,78
7503,1,0.747126600239426,3,6,3,117,78
7503,1,0.86493879975751,1,1,1,118,39
7503,0,0.572162800002843,1,2,3,119,39
7503,0,0.531001899857074,1,3,3,120,39
7503,1,0.442771699745208,1,1,1,121,39
7503,1,0.367244699969888,3,3,3,122,39
7503,1,0.661881600040942,3,2,3,123,39
7503,1,0.665688399691135,3,2,3,124,39
7503,1,0.580393900163472,3,3,3,125,39
7503,1,0.587289599701762,1,1,1,126,39
7503,1,0.377571600023657,1,1,1,127,39
7503,1,0.488248100038618,3,2,3,128,39
7503,1,0.426541300024837,3,3,3,129,39
7503,1,0.359080099966377,1,1,1,130,39
7503,1,0.37474469980225,3,3,3,131,39
7503,1,0.389871700201184,3,2,3,132,39
7503,1,0.507803400047123,3,2,3,133,39
7503,1,0.469214300159365,3,3,3,134,39
7503,1,0.328205700032413,1,1,1,135,39
7503,1,0.337084200233221,3,3,3,136,39
7503,1,0.537661599926651,3,2,3,137,39
7503,1,0.361396499909461,1,1,1,138,39
7503,1,0.433280100114644,1,1,1,139,39
7503,1,0.485467799939215,3,3,3,140,39
7503,1,0.471808100119233,3,2,3,141,39
7503,1,0.386616699863225,3,2,3,142,39
7503,1,0.504757599905133,3,3,3,143,39
7503,1,0.466383799910545,1,1,1,144,39
7503,1,0.580875100102276,3,3,3,145,39
7503,1,0.483002899680287,1,1,1,146,39
7503,1,0.365526599809527,3,2,3,147,39
7503,1,0.420369800180197,3,2,3,148,39
7503,1,0.433364300057292,3,3,3,149,39
7503,1,0.373176699969918,3,2,3,150,39
7503,1,0.364340100437403,1,1,1,151,39
7503,1,0.3152656997554,3,3,3,152,39
7503,1,0.548219399992377,1,1,1,153,39
7503,1,0.467611499596387,1,1,1,154,39
7503,1,0.38248879974708,3,2,3,155,39
7503,1,0.292763799894601,3,3,3,156,39
7503,0,0.415975399781018,1,1,2,157,39
7503,0,0.413148399908096,1,2,2,158,39
7503,1,0.41058069979772,1,3,1,159,39
7503,0,0.57605900010094,3,1,2,160,39
7503,1,0.879023800138384,1,3,1,161,39
7503,0,0.441735200118273,3,2,2,162,39
7503,1,1.1096025002189,2,2,2,163,39
7503,1,0.407383000012487,1,3,1,164,39
7503,1,0.452415000181645,2,1,2,165,39
7503,1,0.400015000253916,2,1,2,166,39
7503,1,0.405555800069124,2,2,2,167,39
7503,1,0.379521199967712,1,3,1,168,39
7503,1,0.506273299921304,2,1,2,169,39
7503,1,0.395430600270629,1,3,1,170,39
7503,1,0.505939200054854,2,2,2,171,39
7503,1,0.515521599911153,2,2,2,172,39
7503,1,0.508329099975526,1,3,1,173,39
7503,1,0.614034399855882,2,1,2,174,39
7503,1,0.570676899980754,1,3,1,175,39
7503,1,0.529556899797171,2,2,2,176,39
7503,1,0.642087299842387,2,1,2,177,39
7503,1,0.39051270019263,2,1,2,178,39
7503,0,0.380462999921292,2,3,1,179,39
7503,1,0.626976099796593,2,2,2,180,39
7503,1,0.351830500178039,2,2,2,181,39
7503,1,0.327008500229567,1,3,1,182,39
7503,1,0.368219499941915,2,1,2,183,39
7503,1,0.366746899671853,1,3,1,184,39
7503,0,0.454040000215173,1,1,2,185,39
7503,1,0.545234399847686,2,2,2,186,39
7503,1,0.393896399997175,2,2,2,187,39
7503,1,0.415701500140131,1,3,1,188,39
7503,1,0.476527399849147,2,2,2,189,39
7503,1,0.399601799901575,2,1,2,190,39
7503,1,0.461473000235856,1,3,1,191,39
7503,1,0.384512600023299,2,1,2,192,39
7503,1,0.343086000066251,2,1,2,193,39
7503,1,0.295295699965209,2,2,2,194,39
7503,1,0.465124399866909,1,3,1,195,39
7503,0,0.712254900019616,1,1,2,196,78
7503,0,0.458019600249827,1,2,2,197,78
7503,0,0.421203599777073,1,3,3,198,78
7503,0,0.33034969959408,1,4,3,199,78
7503,1,0.363291299901903,1,5,1,200,78
7503,1,0.362772000022233,1,6,1,201,78
7503,0,0.426459799986333,1,2,2,202,78
7503,1,0.783060899935663,1,6,1,203,78
7503,1,0.46913340035826,1,5,1,204,78
7503,1,0.352276700083166,3,3,3,205,78
7503,0,0.743791899643838,3,1,2,206,78
7503,1,1.06384760001674,3,4,3,207,78
7503,1,0.458350399974734,3,4,3,208,78
7503,1,0.670098500326276,2,1,2,209,78
7503,1,0.537031299900264,1,5,1,210,78
7503,0,0.984801399987191,3,2,2,211,78
7503,1,0.76688089966774,1,6,1,212,78
7503,1,0.837863299995661,3,3,3,213,78
7503,1,0.418001499958336,2,1,2,214,78
7503,1,0.406542500015348,2,2,2,215,78
7503,-1,-1,-1,3,3,216,78
7503,0,0.549562599975616,2,4,3,217,78
7503,1,0.477071699686348,1,5,1,218,78
7503,1,0.327951800078154,1,6,1,219,78
7503,1,0.624880299903452,2,1,2,220,78
7503,1,0.621330500114709,3,4,3,221,78
7503,0,0.410558999981731,3,2,2,222,78
7503,1,0.544145099818707,1,5,1,223,78
7503,1,0.744289699941874,3,3,3,224,78
7503,1,0.568090499844402,1,6,1,225,78
7503,1,0.502851399593055,1,5,1,226,78
7503,1,0.544410899747163,1,6,1,227,78
7503,1,0.576915099751204,2,1,2,228,78
7503,1,0.711744900327176,3,3,3,229,78
7503,1,0.416755400132388,3,4,3,230,78
7503,1,0.573706100229174,2,2,2,231,78
7503,0,0.500994100235403,3,2,2,232,78
7503,1,0.654050199780613,3,3,3,233,78
7503,1,0.449740000069141,1,6,1,234,78
7503,1,0.269292200449854,1,5,1,235,78
7503,1,0.488304600119591,1,5,1,236,78
7503,1,0.578571499790996,1,6,1,237,78
7503,1,0.528987700119615,2,1,2,238,78
7503,0,0.889816199894994,2,3,3,239,78
7503,1,0.779993399977684,3,4,3,240,78
7503,1,0.426279400009662,3,3,3,241,78
7503,1,0.598838199861348,2,1,2,242,78
7503,0,0.564715899992734,3,2,2,243,78
7503,1,0.531430600211024,2,2,2,244,78
7503,1,0.475641299970448,3,4,3,245,78
7503,1,0.41421419987455,1,5,1,246,78
7503,1,0.531062500085682,3,4,3,247,78
7503,1,0.531598499976099,1,6,1,248,78
7503,0,0.603645700030029,1,1,2,249,78
7503,1,0.552861200179905,3,4,3,250,78
7503,1,0.672671999782324,3,3,3,251,78
7503,1,0.539539100136608,2,2,2,252,78
7503,0,0.451715100090951,3,5,1,253,78
7503,1,0.479248800314963,2,1,2,254,78
7503,1,0.410086600109935,2,2,2,255,78
7503,1,0.46323630027473,1,6,1,256,78
7503,1,0.571104099974036,3,3,3,257,78
7503,1,0.457890100311488,1,6,1,258,78
7503,1,0.405189900193363,3,4,3,259,78
7503,1,0.370921100024134,1,5,1,260,78
7503,1,0.474014699924737,1,5,1,261,78
7503,1,0.548508000094444,1,6,1,262,78
7503,1,0.524360300041735,2,1,2,263,78
7503,1,0.492899999953806,3,4,3,264,78
7503,1,0.567366099916399,2,1,2,265,78
7503,1,0.358192200306803,2,2,2,266,78
7503,1,0.373648800421506,3,3,3,267,78
7503,1,0.452170399948955,2,1,2,268,78
7503,0,0.432135900016874,3,5,1,269,78
7503,1,0.620288299862295,3,4,3,270,78
7503,1,0.656842299737036,3,3,3,271,78
7503,1,0.532679699826986,3,3,3,272,78
7503,1,0.50074869999662,1,6,1,273,78
7503,0,0.479322200175375,1,1,3,274,39
7503,0,0.426688900217414,1,2,2,275,39
7503,0,0.27957129990682,1,3,3,276,39
7503,1,0.60245359968394,3,1,3,277,39
7503,1,0.37605269998312,3,3,3,278,39
7503,0,0.262510800268501,3,2,2,279,39
7503,1,0.554396099876612,2,2,2,280,39
7503,1,0.689853500109166,3,3,3,281,39
7503,1,0.628181700129062,3,1,3,282,39
7503,1,0.44085399992764,3,1,3,283,39
7503,1,0.413167700171471,2,2,2,284,39
7503,1,0.354600000195205,3,3,3,285,39
7503,1,0.330202999990433,3,1,3,286,39
7503,1,0.538984099868685,3,3,3,287,39
7503,1,0.411264500115067,2,2,2,288,39
7503,1,0.432496699970216,2,2,2,289,39
7503,1,0.436890200246125,3,3,3,290,39
7503,1,0.625183000229299,3,1,3,291,39
7503,1,0.621965699829161,3,3,3,292,39
7503,1,0.570523899979889,2,2,2,293,39
7503,1,0.473423500079662,3,1,3,294,39
7503,1,0.436454600188881,3,1,3,295,39
7503,1,0.656667099799961,3,3,3,296,39
7503,1,0.435878700111061,2,2,2,297,39
7503,1,0.464536299929023,2,2,2,298,39
7503,1,0.419374799821526,3,3,3,299,39
7503,1,0.480138099752367,3,1,3,300,39
7503,1,0.506899900268763,3,3,3,301,39
7503,1,0.356280600186437,3,1,3,302,39
7503,1,0.420064100064337,2,2,2,303,39
7503,1,0.368992699775845,2,2,2,304,39
7503,1,0.543845800217241,3,3,3,305,39
7503,1,0.559967400040478,2,2,2,306,39
7503,1,0.375486399978399,3,1,3,307,39
7503,1,0.414116899948567,3,3,3,308,39
7503,1,0.419300000183284,3,1,3,309,39
7503,1,0.391822299920022,3,1,3,310,39
7503,1,0.46245800005272,2,2,2,311,39
7503,1,0.377871800214052,3,3,3,312,39
7503,0,0.502630800008774,1,1,3,313,78
7503,0,0.640266499947757,1,2,3,314,78
7503,1,0.532439799979329,1,3,1,315,78
7503,1,0.868607300333679,1,4,1,316,78
7503,0,0.671367399860173,1,5,2,317,78
7503,0,0.514042200054973,1,6,2,318,78
7503,1,0.802923500072211,3,2,3,319,78
7503,0,0.744063899852335,3,6,2,320,78
7503,0,0.936180999968201,3,5,2,321,78
7503,1,0.704477299936116,1,3,1,322,78
7503,1,0.865681500174105,3,1,3,323,78
7503,0,0.724715599790215,3,4,1,324,78
7503,1,0.4851378002204,1,4,1,325,78
7503,1,0.719641000032425,3,1,3,326,78
7503,1,0.792511799838394,2,5,2,327,78
7503,1,0.686560700181872,3,2,3,328,78
7503,1,0.936584599781781,2,6,2,329,78
7503,0,0.68065100023523,3,3,1,330,78
